timestamp_sec,timestamp_nsec,frame_id,orientation_x,orientation_y,orientation_z,orientation_w,angular_velocity_x,angular_velocity_y,angular_velocity_z,linear_acceleration_x,linear_acceleration_y,linear_acceleration_z
345,672000000,imu1_frame,0.012010040301645798,-0.009571274972901866,0.32997200222308587,0.9438657888578408,0.0,0.0,0.0,-0.023585110902786255,-0.007505312561988831,-0.11453914642333984
345,698000000,imu1_frame,0.010533882502246688,-0.007427831460101702,0.3299725419470605,0.9439025300316896,0.0,0.0,0.0,0.02547682821750641,0.005896806716918945,-0.11590290069580078
345,723000000,imu1_frame,0.011951675918665743,-0.009486534914952329,0.3299720660699427,0.9438673628808105,0.0,0.0,0.0,-0.02164551615715027,-0.00697539746761322,-0.11459827423095703
345,748000000,imu1_frame,0.010533217000731551,-0.0074268481021201845,0.32997254153961464,0.9439025453386441,0.0,0.0,0.0,0.025499284267425537,0.005902767181396484,-0.11590290069580078
345,773000000,imu1_frame,0.01195098365180018,-0.009485538461901415,0.32997206686788966,0.9438673813819265,0.0,0.0,0.0,-0.021622657775878906,-0.006969064474105835,-0.11459922790527344
345,798000000,imu1_frame,0.010532590080591304,-0.007425925601727036,0.32997254118489594,0.9439025597163798,0.0,0.0,0.0,0.025520339608192444,0.005908370018005371,-0.11590385437011719
345,823000000,imu1_frame,0.011950333105029224,-0.009484602622202673,0.3299720676159681,0.9438673987616166,0.0,0.0,0.0,-0.021601200103759766,-0.006963133811950684,-0.11460018157958984
345,848000000,imu1_frame,0.01053200089359496,-0.007425061983066542,0.3299725408802914,0.9439025731910732,0.0,0.0,0.0,0.025540083646774292,0.005913674831390381,-0.11590385437011719
345,872000000,imu1_frame,0.011893020462934709,-0.009401384348493613,0.32997212679344895,0.9438689345327602,0.0,0.0,0.0,-0.01969650387763977,-0.006442800164222717,-0.11465740203857422
345,898000000,imu1_frame,0.01041654451810358,-0.007257391713106887,0.32997248839253124,0.9439051767894197,0.0,0.0,0.0,0.029377982020378113,0.006961852312088013,-0.11599922180175781
345,923000000,imu1_frame,0.011835051303947894,-0.009317220717275865,0.3299721832729144,0.943870477991999,0.0,0.0,0.0,-0.017770051956176758,-0.00591646134853363,-0.114715576171875
345,947000000,imu1_frame,0.010474521806681574,-0.0073415522663695795,0.3299725161431575,0.9439038746574755,0.0,0.0,0.0,0.027451440691947937,0.006435289978981018,-0.1159524917602539
345,973000000,imu1_frame,0.011948459776668943,-0.009481916272828322,0.32997206983706734,0.9438674486919241,0.0,0.0,0.0,-0.02153956890106201,-0.006945878267288208,-0.11460208892822266
345,998000000,imu1_frame,0.010530330352258735,-0.007422580532993465,0.3299725397356987,0.9439026117461887,0.0,0.0,0.0,0.02559661865234375,0.005928471684455872,-0.11590576171875
346,23000000,imu1_frame,0.011198664199496545,-0.005010129587007346,0.3299464264657023,0.9439199352615566,0.0,0.0,0.0,0.026738613843917847,-0.021969377994537354,-0.11620807647705078
346,47000000,imu1_frame,0.011345678193285347,-0.007408648812070708,0.3299656270540803,0.9438956894021294,0.0,0.0,0.0,0.020597293972969055,-0.009204432368278503,-0.15071678161621094
346,72000000,imu1_frame,0.011498551995868777,-0.009903793483139328,0.3299835790023051,0.9438646808549788,0.0,0.0,0.0,-0.02642330527305603,0.004078850150108337,-0.14980506896972656
346,98000000,imu1_frame,0.01125774290253085,-0.007315503788835402,0.3299659924407915,0.9438973410607848,0.0,0.0,0.0,0.022882625460624695,-0.008183136582374573,-0.11562633514404297
346,122000000,imu1_frame,0.009664913098386765,-0.009113149138613446,0.32999672432867816,0.9438886067221706,0.0,0.0,0.0,-1.5467405319213867e-05,-0.006255336105823517,-0.11570072174072266
346,148000000,imu1_frame,0.007939145169062444,-0.011060729179231352,0.3300278712382036,0.9438729969916441,0.0,0.0,0.0,-0.024818331003189087,0.03815769404172897,-0.11552715301513672
346,173000000,imu1_frame,0.009993332999726347,-0.00962907202119159,0.329994500370656,0.9438808420519448,0.0,0.0,0.0,-0.011650919914245605,0.030076801776885986,-0.11538505554199219
346,197000000,imu1_frame,0.011963430375470503,-0.008255926328597845,0.3299605506473108,0.9438828057712627,0.0,0.0,0.0,0.0009834468364715576,-0.015135243535041809,-0.115020751953125
346,222000000,imu1_frame,0.012051342497688558,-0.010755723947825771,0.3299799082921398,0.9438497442230266,0.0,0.0,0.0,-0.006640434265136719,-0.0006221681833267212,-0.11014366149902344
346,247000000,imu1_frame,0.011963528767808132,-0.008257976341872014,0.3299605669956144,0.9438827808759366,0.0,0.0,0.0,0.040007397532463074,-0.01512385904788971,-0.1111135482788086
346,273000000,imu1_frame,0.014513018166140337,-0.007740976359962675,0.3299250772054793,0.9438638106314186,0.0,0.0,0.0,-0.005946904420852661,-0.026434406638145447,-0.109954833984375
346,298000000,imu1_frame,0.012063629247434676,-0.008237693561829594,0.3299592158676618,0.9438821563723723,0.0,0.0,0.0,0.0006738901138305664,0.02196083962917328,-0.11107254028320312
346,323000000,imu1_frame,0.009940343473002858,-0.009556628858910501,0.32999458684374144,0.9438821076121319,0.0,0.0,0.0,-0.00997285544872284,0.030586905777454376,-0.1154336929321289
346,348000000,imu1_frame,0.012065321910597174,-0.008236649637170934,0.3299591868928086,0.9438821539763239,0.0,0.0,0.0,0.0006823837757110596,-0.017139539122581482,-0.11497879028320312
346,372000000,imu1_frame,0.010026944055681159,-0.009502849463751396,0.3299931846590348,0.9438822248159786,0.0,0.0,0.0,-0.009538978338241577,0.02864193171262741,-0.11541938781738281
346,397000000,imu1_frame,0.012150186084801977,-0.00818392463385697,0.3299577301742502,0.9438820332297616,0.0,0.0,0.0,0.0011081695556640625,-0.01904556155204773,-0.11495494842529297
346,422000000,imu1_frame,0.010023285931750489,-0.009505132353861469,0.32999324404819913,0.9438822199197374,0.0,0.0,0.0,-0.009557530283927917,0.02872414141893387,-0.11542034149169922
346,447000000,imu1_frame,0.012146544422290557,-0.008186178494773167,0.3299577926891019,0.9438820387018626,0.0,0.0,0.0,0.0010900497436523438,-0.01896381378173828,-0.11495590209960938
346,473000000,imu1_frame,0.009934589325720675,-0.009560242930700435,0.3299946802168061,0.9438820989502041,0.0,0.0,0.0,-0.010002464056015015,0.030716396868228912,-0.11543464660644531
346,497000000,imu1_frame,0.011974708787269962,-0.008292918645511285,0.3299607384643395,0.9438822728083556,0.0,0.0,0.0,0.0002282261848449707,-0.015104562044143677,-0.11500263214111328
346,523000000,imu1_frame,0.009763367567017253,-0.009666620030007143,0.3299974423630261,0.9438818364312389,0.0,0.0,0.0,-0.010861128568649292,0.034562237560749054,-0.11546039581298828
346,548000000,imu1_frame,0.011919315103118203,-0.008401658314496973,0.32996216511308096,0.9438815135698584,0.0,0.0,0.0,-0.0014209449291229248,-0.013380780816078186,-0.15014934539794922
346,573000000,imu1_frame,0.009791340727736504,-0.009605613111331433,0.3299985131522295,0.9438817951209922,0.00390625,0.00390625,0.0,-0.009916216135025024,0.03365278244018555,-0.15062904357910156
346,598000000,imu1_frame,0.01195862804273814,-0.008338062391397928,0.32996367671851695,0.9438810518160065,0.0,0.00390625,0.0,-0.0005014240741729736,-0.014515921473503113,-0.15015220642089844
346,623000000,imu1_frame,0.009760572541045875,-0.009514146426064534,0.3299994573731269,0.9438827100730771,0.0,0.00390625,0.0,-0.008030503988265991,0.03363047540187836,-0.11551856994628906
346,647000000,imu1_frame,0.011872485694868089,-0.008350327430875805,0.32992195688247894,0.9438966142973807,0.0,0.00390625,-0.00390625,-0.0001649707555770874,-0.012857884168624878,-0.11503124237060547
346,673000000,imu1_frame,0.009706778826034518,-0.009678678963396251,0.3299356589186438,0.9439038947860455,0.00390625,0.00390625,-0.001953125,-0.010711044073104858,0.035668209195137024,-0.11547660827636719
346,698000000,imu1_frame,0.010586151870801103,-0.00726517477076612,0.32988795600196186,0.9439327767955547,0.00390625,0.00390625,-0.001953125,-0.01090840995311737,0.0038650482892990112,-0.15108394622802734
346,723000000,imu1_frame,0.011853791078490347,-0.009373747145257407,0.32986846852258844,0.9439059349194104,0.00390625,0.00390625,-0.001953125,-0.018916308879852295,-0.0059248656034469604,-0.1146860122680664
346,747000000,imu1_frame,0.010542906379688435,-0.007416379538889563,0.32984559298084654,0.9439468889883147,0.0,-0.00390625,-0.001953125,0.025649651885032654,0.005628898739814758,-0.11590290069580078
346,772000000,imu1_frame,0.0111887030904972,-0.005039960514094237,0.3297962503853083,0.943972375100543,0.0,-0.00390625,-0.001953125,0.026280134916305542,-0.021619468927383423,-0.11620712280273438
346,798000000,imu1_frame,0.010463685425217636,-0.007614727178338959,0.32984641417850513,0.943945904313856,-0.00390625,-0.00390625,0.001953125,-0.016561776399612427,0.008369922637939453,-0.11587715148925781
346,822000000,imu1_frame,0.012018090979281932,-0.009481245516999774,0.3298631752760596,0.9439046334611647,-0.00390625,-0.00390625,0.001953125,-0.021957606077194214,-0.008263811469078064,-0.11456966400146484
346,847000000,imu1_frame,0.010910710433517495,-0.007288294262783052,0.32987955312636624,0.9439318394850997,-0.00390625,-0.00390625,0.001953125,-0.013426005840301514,-0.0019754022359848022,-0.1157846450805664
346,873000000,imu1_frame,0.010000801192021255,-0.005253364561572832,0.32983954515503955,0.9439694171890408,-0.01171875,-0.029296875,-0.001953125,0.029992103576660156,0.0016803741455078125,-0.11665534973144531
346,897000000,imu1_frame,0.011021601058289067,-0.007672551900028401,0.32984375352821393,0.9439400163759729,-0.0078125,-0.01953125,0.0,-0.021224424242973328,-0.0015507042407989502,-0.11562538146972656
346,923000000,imu1_frame,0.010380832774003652,-0.010472276264168499,0.329865549777742,0.9439127548722887,-0.0078125,-0.01953125,0.0,0.009374380111694336,-0.01072896271944046,-0.1109933853149414
346,947000000,imu1_frame,0.008876653383949386,-0.008844638242334852,0.3298692708506354,0.943943452515845,-0.0078125,-0.01953125,0.0,0.010035902261734009,0.006524696946144104,-0.11608123779296875
346,973000000,imu1_frame,0.010927035240444567,-0.010579566411316329,0.3298294222920466,0.9439180180852029,0.0,-0.0078125,-0.001953125,-0.0351828932762146,-0.020123615860939026,-0.11462783813476562
346,998000000,imu1_frame,0.009034255639421004,-0.00910523578680842,0.32984099667769706,0.9439493597735907,-0.00390625,-0.01171875,0.0,0.0042151957750320435,0.005290977656841278,-0.11593437194824219
347,22000000,imu1_frame,0.010138989616313357,-0.011384857847774687,0.32983725367052874,0.9439147058884237,-0.00390625,-0.01171875,0.0,-0.005898863077163696,-0.00038917362689971924,-0.11070060729980469
347,47000000,imu1_frame,0.010037087662780622,-0.008847677501093568,0.3297997139019333,0.9439561028905366,-0.001953125,0.00390625,-0.001953125,0.04157131910324097,-0.014881819486618042,-0.11174392700195312
347,72000000,imu1_frame,0.012476619274021888,-0.008468578646950456,0.329744793355879,0.9439496747188805,-0.001953125,0.00390625,-0.001953125,-0.006208404898643494,-0.02328409254550934,-0.11470508575439453
347,97000000,imu1_frame,0.010024317408927608,-0.008643157741775232,0.32975839835487886,0.9439725671857001,0.0078125,0.01953125,-0.001953125,0.0063702017068862915,0.023087620735168457,-0.11572647094726562
347,123000000,imu1_frame,0.012638084878126442,-0.00840845322495985,0.32970714530053413,0.9439612148085055,0.0078125,0.01953125,-0.001953125,-0.006132304668426514,-0.026659950613975525,-0.11464595794677734
347,147000000,imu1_frame,0.010297659263594211,-0.00863311917443667,0.3297207028799423,0.9439828841453471,0.0078125,0.01953125,-0.001953125,0.004799306392669678,0.017970755696296692,-0.11562061309814453
347,173000000,imu1_frame,0.008320767793968481,-0.010040143026255409,0.32973377895530365,0.9439838957138974,0.0078125,0.01953125,-0.001953125,-0.008424326777458191,0.02445707470178604,-0.11582660675048828
347,197000000,imu1_frame,0.010351530527446973,-0.00880967424065788,0.32967957092402017,0.9439950296325013,-0.001953125,-0.001953125,-0.001953125,0.0012006163597106934,-0.020957350730895996,-0.1155385971069336
347,223000000,imu1_frame,0.012913747096243738,-0.008477329878096391,0.3296212746870153,0.9439868565227905,-0.001953125,-0.001953125,-0.001953125,-0.00916239619255066,-0.03132322430610657,-0.1144857406616211
347,248000000,imu1_frame,0.010471866540680512,-0.007896387807365962,0.3296206773362135,0.9440223493875375,-0.001953125,-0.001953125,-0.001953125,-0.021777287125587463,-0.02907809615135193,-0.15094470977783203
347,273000000,imu1_frame,0.008044533084872558,-0.00718957047041695,0.32945726012661364,0.9441088439972174,0.0,0.00390625,-0.015625,0.0069188326597213745,0.011122725903987885,-0.15203094482421875
347,298000000,imu1_frame,0.01038717908269676,-0.007882416941896026,0.3292313297824966,0.9441592585488462,0.0,0.0078125,-0.017578125,-0.020915746688842773,-0.027693063020706177,-0.15098285675048828
347,323000000,imu1_frame,0.009855684969425767,-0.005338973117797475,0.3290115353328678,0.9442593766851032,0.0,0.0078125,-0.017578125,-0.04864764213562012,0.004767760634422302,-0.11278820037841797
347,348000000,imu1_frame,0.009372485533050577,-0.0029104406826672958,0.32897279321492784,0.9442884025414766,0.0,-0.001953125,-0.001953125,-0.0007097423076629639,-0.0019395053386688232,-0.11336135864257812
347,373000000,imu1_frame,0.009641011173133731,-0.00541197094309246,0.3289901057776344,0.9442686438585639,0.00390625,-0.001953125,0.0,-0.04861125349998474,0.009195640683174133,-0.1128549575805664
347,398000000,imu1_frame,0.00937585225277356,-0.003080275751673212,0.3289254249795459,0.9443043312925409,-0.00390625,-0.01171875,-0.00390625,-0.003858506679534912,-0.0009153187274932861,-0.11334037780761719
347,423000000,imu1_frame,0.011209496015939523,-0.00494028901562962,0.3288790741157022,0.9442925899064915,-0.00390625,-0.01171875,-0.00390625,0.02815532684326172,0.01625816524028778,-0.11231040954589844
347,447000000,imu1_frame,0.011558844255482497,-0.0074648919349426315,0.32885033719099077,0.9442818034025906,-0.00390625,-0.01171875,-0.00390625,0.05744284391403198,-0.013024657964706421,-0.1115427017211914
347,473000000,imu1_frame,0.01063758226553594,-0.01005767668027568,0.3288296116681822,0.9442757920615628,-0.00390625,-0.01171875,-0.00390625,0.015512585639953613,-0.018418684601783752,-0.1110544204711914
347,498000000,imu1_frame,0.00964337656977883,-0.012429865811710966,0.32894809034608297,0.9442169547206308,-0.001953125,-0.005859375,0.0078125,-0.021890640258789062,0.015219837427139282,-0.11040592193603516
347,523000000,imu1_frame,0.010690213878885463,-0.010234218276491555,0.3290112952891613,0.9442100124843208,-0.001953125,-0.005859375,0.0078125,-0.027171671390533447,0.020857155323028564,-0.1148681640625
347,548000000,imu1_frame,0.013114844519361003,-0.010930896300003965,0.32907361281084946,0.9441499212047454,-0.001953125,-0.005859375,0.0078125,-0.016563832759857178,-0.01938404142856598,-0.10954570770263672
347,572000000,imu1_frame,0.010805153386547443,-0.010315622443698625,0.32916356144263836,0.9441547470686628,-0.005859375,-0.009765625,0.005859375,0.009628057479858398,0.019301608204841614,-0.11088180541992188
347,598000000,imu1_frame,0.013324511114665379,-0.010941113413686934,0.32920284697907504,0.9441018138853965,-0.00390625,-0.005859375,0.005859375,-0.018124401569366455,-0.0231475830078125,-0.10943412780761719
347,623000000,imu1_frame,0.011680999228108281,-0.00912401232522074,0.32927626608425453,0.9441172846896371,-0.00390625,-0.005859375,0.005859375,-0.013097032904624939,-0.0045010000467300415,-0.15001201629638672
347,647000000,imu1_frame,0.010238942533136735,-0.01114219071979284,0.3293736205962098,0.9440784044225938,-0.00390625,-0.005859375,0.005859375,-0.002008885145187378,-0.003931745886802673,-0.11076736450195312
347,673000000,imu1_frame,0.00822551496855986,-0.012728119667556007,0.3303462245794036,0.9437381563650823,0.0,0.01171875,0.076171875,-0.018384277820587158,0.04373157024383545,-0.11075401306152344
347,698000000,imu1_frame,0.010184748356368888,-0.011164466498098054,0.3304030614294287,0.9437189425813128,0.0,0.001953125,0.0078125,-0.0021975338459014893,-0.002491988241672516,-0.1107797622680664
347,722000000,imu1_frame,0.011253819698592486,-0.00899559321083607,0.3304630988335872,0.9437089440893732,0.0,0.001953125,0.0078125,-0.008166775107383728,0.0028545409440994263,-0.15024948120117188
347,748000000,imu1_frame,0.012519092127250333,-0.006762699455959381,0.33045248536858374,0.9437153665921224,-0.001953125,-0.001953125,0.001953125,0.024851620197296143,-0.03491233289241791,-0.15034961700439453
347,772000000,imu1_frame,0.010668354761057017,-0.00833954409487154,0.3305073136100281,0.9437062858015008,-0.001953125,-0.001953125,0.001953125,0.007708325982093811,-0.02963806688785553,-0.11556625366210938
347,798000000,imu1_frame,0.00861794148736789,-0.010094189410743972,0.330587535356036,0.9436820014665334,-0.005859375,-0.005859375,0.00390625,-0.011421263217926025,0.019541211426258087,-0.1157064437866211
347,823000000,imu1_frame,0.009902036233778111,-0.008070298760938968,0.3306046819122499,0.9436828727141519,-0.005859375,-0.005859375,0.00390625,-0.021451815962791443,0.021840959787368774,-0.11596012115478516
347,847000000,imu1_frame,0.007803154021553276,-0.006922215116207538,0.33066082725221996,0.943692010693149,-0.005859375,-0.005859375,0.00390625,0.013280048966407776,0.014081962406635284,-0.11702346801757812
347,872000000,imu1_frame,0.01006232518157332,-0.008117592417946006,0.3306669049531142,0.9436589703245577,-0.001953125,-0.0078125,0.001953125,-0.023368388414382935,-0.019857987761497498,-0.11588287353515625
347,898000000,imu1_frame,0.007805326916655058,-0.006944553203144226,0.3307047716896692,0.9436764297333152,-0.001953125,-0.0078125,0.001953125,0.012849345803260803,0.014194592833518982,-0.11701679229736328
347,922000000,imu1_frame,0.009197847594849984,-0.009003124420923133,0.3307222773963779,0.9436403544698777,-0.001953125,-0.0078125,0.001953125,0.004940643906593323,0.0018248185515403748,-0.11591148376464844
347,948000000,imu1_frame,0.01093948549655996,-0.011047740667503404,0.3307349544508429,0.9435956045826056,-0.001953125,-0.0078125,0.001953125,-0.044025421142578125,-0.017070427536964417,-0.1144247055053711
347,973000000,imu1_frame,0.009203491413192998,-0.009513338730028418,0.3304843704264975,0.9437186408224734,-0.01953125,-0.025390625,-0.021484375,-0.004478931427001953,0.004960685968399048,-0.11572456359863281
347,998000000,imu1_frame,0.011171296453093553,-0.008486149511342184,0.3301922374479363,0.9438094477865508,-0.017578125,-0.02734375,-0.021484375,0.0018064528703689575,-0.03804333508014679,-0.11530303955078125
348,22000000,imu1_frame,0.008932151247919542,-0.009928287158653638,0.32997568304290353,0.9438949594041431,-0.017578125,-0.02734375,-0.021484375,-0.010325923562049866,0.01251722127199173,-0.11566448211669922
348,47000000,imu1_frame,0.010649936131297102,-0.008265336029050194,0.32989645066266843,0.9439208626367465,-0.001953125,-0.015625,-0.00390625,0.009288772940635681,-0.029921039938926697,-0.11559772491455078
348,72000000,imu1_frame,0.010739845959223164,-0.01095759457360304,0.32986466023718697,0.9439035399639827,-0.001953125,-0.015625,-0.00390625,0.03326341509819031,-0.014221996068954468,-0.1145486831665039
348,98000000,imu1_frame,0.010686820312265833,-0.013872854519932816,0.329947456250498,0.9438368566086557,-0.01171875,-0.021484375,0.005859375,-0.020182281732559204,0.005590073764324188,-0.11315631866455078
348,122000000,imu1_frame,0.010148269510734715,-0.011813060988102149,0.33000356190756786,0.9438512135629996,-0.01171875,-0.021484375,0.005859375,-0.013877928256988525,0.0022513121366500854,-0.1105031967163086
348,148000000,imu1_frame,0.010045838663936513,-0.009527197625007483,0.33005591116307625,0.9438598461303795,-0.01171875,-0.021484375,0.005859375,0.028944194316864014,-0.01059608906507492,-0.1114969253540039
348,172000000,imu1_frame,0.010183325020463648,-0.01194681772109172,0.33004618921538437,0.9438342473243219,0.0,-0.001953125,-0.001953125,-0.01657623052597046,0.0024807527661323547,-0.1104269027709961
348,198000000,imu1_frame,0.009994393345977631,-0.0094394374870536,0.3300554365830655,0.9438614399918751,-0.00390625,-0.005859375,0.001953125,0.03089505434036255,-0.010213539004325867,-0.11154937744140625
348,222000000,imu1_frame,0.010452414078045673,-0.011875847720107888,0.330084421886906,0.9438188309778827,-0.00390625,-0.005859375,0.001953125,0.01814916729927063,-0.0029295608401298523,-0.0751953125
348,248000000,imu1_frame,0.008742020596850645,-0.013947510689246703,0.3301423250881799,0.9437876292931731,-0.00390625,-0.005859375,0.001953125,-0.009036511182785034,0.00685708224773407,-0.11385345458984375
348,272000000,imu1_frame,0.01013325543631851,-0.011976681453676561,0.3301562324933585,0.9437959198796161,0.0,0.001953125,0.00390625,0.018339157104492188,-0.03152577579021454,-0.11433887481689453
348,297000000,imu1_frame,0.008650972542548699,-0.014115388536525563,0.3302090676649532,0.9437626227565772,-0.005859375,-0.005859375,0.001953125,-0.01155039668083191,0.009642824530601501,-0.11379241943359375
348,323000000,imu1_frame,0.01004702762800205,-0.012047543163582853,0.33019932748606523,0.9437808633720617,-0.005859375,-0.005859375,0.001953125,0.017583400011062622,-0.029464587569236755,-0.11433982849121094
348,348000000,imu1_frame,0.00864716572023641,-0.013988536782725838,0.33025529080523747,0.9437483723211569,0.00390625,0.009765625,0.001953125,-0.009189575910568237,0.00890929251909256,-0.11386299133300781
348,373000000,imu1_frame,0.009841754631439536,-0.01165914127655398,0.3302520528779866,0.9437694558844038,0.00390625,0.009765625,0.001953125,-0.00909009575843811,0.006985902786254883,-0.11069297790527344
348,397000000,imu1_frame,0.011198055438805888,-0.009788307299615658,0.3302415490869517,0.9437792707255486,-0.00390625,-0.0078125,0.001953125,0.01666790246963501,-0.030116453766822815,-0.11091995239257812
348,423000000,imu1_frame,0.009658997951605963,-0.012048027162169529,0.33029741599954704,0.9437505845211928,-0.00390625,-0.01171875,0.001953125,-0.015088558197021484,0.01288209855556488,-0.11058330535888672
348,448000000,imu1_frame,0.011585376917301656,-0.013800656630337195,0.33029751423267106,0.943704865416076,-0.00390625,-0.01171875,0.001953125,-0.024689167737960815,-0.01132897287607193,-0.11280345916748047
348,473000000,imu1_frame,0.009783261007853462,-0.012038529149413576,0.33033708421567015,0.9437355415644048,-0.00390625,0.0,0.001953125,0.01943647861480713,0.010540597140789032,-0.11444568634033203
348,497000000,imu1_frame,0.011482149452714833,-0.013778458618801939,0.3303841565814106,0.9436761220895785,-0.005859375,-0.005859375,0.005859375,-0.023624897003173828,-0.00953829288482666,-0.11286163330078125
348,523000000,imu1_frame,0.009240001289266733,-0.012476835656055698,0.3304810796838997,0.9436849087058403,-0.005859375,-0.005859375,0.005859375,-0.020311206579208374,-0.01171950250864029,-0.11053180694580078
348,548000000,imu1_frame,0.010657468291277575,-0.01054420579547078,0.3305166384774609,0.9436810847862336,-0.005859375,-0.005859375,0.005859375,0.006175488233566284,-0.015186905860900879,-0.11085033416748047
348,573000000,imu1_frame,0.009146209949343061,-0.012750946381828393,0.3305921080209402,0.943643268573565,-0.005859375,-0.015625,0.00390625,-0.024770885705947876,0.02697279304265976,-0.11043071746826172
348,597000000,imu1_frame,0.010392533625716101,-0.011111722138174919,0.3306236688347375,0.9436400343786927,-0.015625,-0.02734375,0.005859375,-0.002594172954559326,-0.006601706147193909,-0.1107187271118164
348,623000000,imu1_frame,0.009048901800145477,-0.013788147953834545,0.33071971881644635,0.9435849044670993,-0.015625,-0.02734375,0.005859375,-0.008124440908432007,0.0003587007522583008,-0.11383342742919922
348,648000000,imu1_frame,0.008892129769695197,-0.011372161414299982,0.3307794525637075,0.9435976673003065,-0.001953125,-0.005859375,0.005859375,0.0374370813369751,-0.012357190251350403,-0.11507701873779297
348,672000000,imu1_frame,0.009049681551867916,-0.013844459028113426,0.3308528375362283,0.9435374047234454,-0.001953125,-0.005859375,0.005859375,-0.009178698062896729,0.0007528141140937805,-0.11380195617675781
348,698000000,imu1_frame,0.008943374317299522,-0.011296222070154655,0.33091485587503516,0.9435506184534919,0.0,-0.00390625,0.005859375,0.038493186235427856,-0.013755254447460175,-0.11509227752685547
348,723000000,imu1_frame,0.00903221243572437,-0.013905189407520457,0.3310147788740599,0.9434798784356846,-0.00390625,-0.0078125,0.0078125,-0.010198801755905151,0.0015219151973724365,-0.11377620697021484
348,747000000,imu1_frame,0.011112494813377732,-0.012838557179027541,0.33106247938990296,0.943456050194599,-0.00390625,-0.0078125,0.0078125,-0.003992229700088501,-0.008571512997150421,-0.11351394653320312
348,773000000,imu1_frame,0.008644048635157792,-0.013491687243920296,0.33110657513721564,0.9434573073008702,0.00390625,0.00390625,0.0,-7.095932960510254e-05,0.041189275681972504,-0.11413192749023438
348,798000000,imu1_frame,0.01104974876866188,-0.012736285110756973,0.3310207315052825,0.9434728217640583,0.001953125,0.009765625,-0.00390625,-0.0016953051090240479,-0.008090220391750336,-0.11359214782714844
348,822000000,imu1_frame,0.00980670070460333,-0.010552285635017672,0.33098346057076555,0.9435265903607423,0.001953125,0.009765625,-0.00390625,0.011465311050415039,0.0006846711039543152,-0.11118698120117188
348,848000000,imu1_frame,0.007879166639957674,-0.012190560516968355,0.3309714026917052,0.9435291408152835,0.001953125,0.009765625,-0.00390625,-0.006277740001678467,0.01167452335357666,-0.11112499237060547
348,873000000,imu1_frame,0.009935854416246984,-0.011024917654065432,0.33095666488336717,0.9435292342884871,-0.0078125,-0.015625,0.001953125,0.0019175708293914795,-0.033802010118961334,-0.11093807220458984
348,898000000,imu1_frame,0.0077666540689819725,-0.012314092218694162,0.3310144095227557,0.9435133824730328,0.0,-0.009765625,0.001953125,-0.007830917835235596,0.014561548829078674,-0.11110115051269531
348,923000000,imu1_frame,0.009819927806428127,-0.010946338193819136,0.3310020933878273,0.9435154269384783,0.0,-0.009765625,0.001953125,0.0041110217571258545,-0.03215990960597992,-0.11101627349853516
348,947000000,imu1_frame,0.007764541933231257,-0.012437169828618791,0.3310550633796103,0.9434975218334934,-0.0078125,-0.015625,0.001953125,-0.010089516639709473,0.015409141778945923,-0.11104202270507812
348,973000000,imu1_frame,0.005138425346717723,-0.012778685983352234,0.33111255155315095,0.9434907418588998,-0.0078125,-0.015625,0.001953125,0.0006020069122314453,0.027004379779100418,-0.11153602600097656
348,998000000,imu1_frame,0.007597516324946757,-0.012296064295070411,0.33107734673351663,0.9434929120181234,0.0,-0.001953125,0.0,-0.006408423185348511,-0.0214800126850605,-0.1111602783203125
349,23000000,imu1_frame,0.00949431193598696,-0.013954699989414034,0.33105450892076044,0.9434606703579657,0.0,-0.001953125,0.0,-0.014103919267654419,-0.006665520370006561,-0.11358165740966797
349,47000000,imu1_frame,0.007349571713695303,-0.012916301505461662,0.3310838592323872,0.943484303582648,0.0,-0.001953125,0.0,-0.01624155044555664,-0.012890491634607315,-0.11092758178710938
349,73000000,imu1_frame,0.004988242618989965,-0.011741485664445422,0.3310887604584374,0.9435133743874863,-0.00390625,0.0,-0.001953125,0.020699769258499146,0.02305336855351925,-0.11206340789794922
349,98000000,imu1_frame,0.0072814642448190475,-0.012823401669249196,0.3311066180950747,0.9434781121476655,0.00390625,0.0,0.00390625,-0.014088928699493408,-0.012229014188051224,-0.1109933853149414
349,123000000,imu1_frame,0.009214399098114348,-0.011168300179194011,0.3311205457214262,0.9434773702222609,0.00390625,0.0,0.00390625,0.003922194242477417,-0.019523292779922485,-0.1111459732055664
349,148000000,imu1_frame,0.00725322834785958,-0.012647958841827187,0.33120090331815943,0.9434476039806897,0.00390625,0.0,0.00390625,-0.01067650318145752,0.026246342808008194,-0.07202625274658203
349,172000000,imu1_frame,0.009171278656301041,-0.010644432138610084,0.33113024900969845,0.9434804406573726,0.015625,0.04296875,-0.00390625,0.013860255479812622,-0.022117294371128082,-0.07232284545898438
349,198000000,imu1_frame,0.007677516737944007,-0.012562095318812822,0.3311381633813975,0.9434674166341595,0.00390625,0.017578125,-0.001953125,-0.011835306882858276,0.017847474664449692,-0.0719451904296875
349,223000000,imu1_frame,0.00944153466736129,-0.010587986160184918,0.33108509216367343,0.9434942573853689,0.00390625,0.017578125,-0.001953125,0.013157457113265991,-0.02747870236635208,-0.11131000518798828
349,247000000,imu1_frame,0.007910101343304075,-0.01247660224242939,0.33109148079462347,0.9434830131160001,-0.001953125,-0.001953125,-0.001953125,-0.011760681867599487,0.012990973889827728,-0.1109781265258789
349,273000000,imu1_frame,0.0095204385071306,-0.010478328773518553,0.3310357508245966,0.9435120018064113,-0.001953125,-0.001953125,-0.001953125,0.014674723148345947,-0.029656991362571716,-0.11132621765136719
349,298000000,imu1_frame,0.007924941503196678,-0.012509856692709865,0.33108772212067705,0.9434837672417263,-0.00390625,-0.005859375,0.001953125,-0.012469649314880371,0.012931443750858307,-0.11095714569091797
349,323000000,imu1_frame,0.007751377935160501,-0.010100116714298548,0.331102461253906,0.9435089103628378,-0.00390625,-0.005859375,0.001953125,-0.0059747397899627686,0.0005360394716262817,-0.1159820556640625
349,347000000,imu1_frame,0.009917180137663862,-0.009194650847831156,0.3310922649450016,0.9435014679519542,-0.00390625,-0.005859375,0.001953125,-0.0032892227172851562,-0.010112069547176361,-0.11557483673095703
349,372000000,imu1_frame,0.0074851617119415246,-0.009807192234515167,0.3310098948217154,0.9435466288767813,0.0,0.005859375,-0.009765625,0.0011569559574127197,0.03868298977613449,-0.11617469787597656
349,397000000,imu1_frame,0.00994725341410019,-0.009149661749071406,0.3309097584764918,0.9435656138204822,0.00390625,0.00390625,-0.005859375,-0.002630069851875305,-0.011002965271472931,-0.11557960510253906
349,422000000,imu1_frame,0.01021926192669402,-0.011578082535316895,0.3308535610566956,0.9435557407098863,0.00390625,0.00390625,-0.005859375,-0.010103344917297363,-0.0003227442502975464,-0.11058235168457031
349,448000000,imu1_frame,0.009445231765544555,-0.0090406445672106,0.3307787881701329,0.9436177444492039,0.00390625,0.00390625,-0.005859375,0.0026427656412124634,-0.0024816319346427917,-0.11580944061279297
349,472000000,imu1_frame,0.009797746038819386,-0.011457867188534362,0.3307216671747908,0.943607916622776,0.001953125,-0.00390625,-0.005859375,-0.04420900344848633,0.006634607911109924,-0.11470794677734375
349,497000000,imu1_frame,0.009430913285893213,-0.00890371083364467,0.3306440835433412,0.9436663985889127,0.001953125,0.005859375,-0.005859375,0.005277380347251892,-0.003135368227958679,-0.11586189270019531
349,523000000,imu1_frame,0.010194591169592204,-0.011307332073647867,0.3305780934120362,0.9436558370022007,0.001953125,0.005859375,-0.005859375,-0.004917353391647339,-0.0016995742917060852,-0.11071300506591797
349,548000000,imu1_frame,0.00890603639000291,-0.009328280160926839,0.3305583142107696,0.9436974444233666,-0.001953125,-0.01171875,-0.001953125,0.03990991413593292,0.009269535541534424,-0.11199283599853516
349,573000000,imu1_frame,0.0074269524456307,-0.011471686350707017,0.3305609298681389,0.943685706384468,-0.001953125,-0.01171875,-0.001953125,0.009930819272994995,-0.02381322532892227,-0.11159324645996094
349,597000000,imu1_frame,0.005810725705921309,-0.013203327544782845,0.3305653559294812,0.9436728527767085,0.0,0.005859375,-0.001953125,-0.011565566062927246,0.017191937193274498,-0.1111764907836914
349,623000000,imu1_frame,0.0081520136561544,-0.012051621793789543,0.33050547063056307,0.9436919184610829,0.0,0.005859375,-0.001953125,-0.005444556474685669,0.040763989090919495,-0.11110591888427734
349,648000000,imu1_frame,0.006026314225810705,-0.010624112165836912,0.3305064759999048,0.9437246850112928,0.0,0.005859375,-0.001953125,-0.00444851815700531,-0.003469061106443405,-0.07717132568359375
349,672000000,imu1_frame,0.0037898524419613276,-0.009684483362113375,0.3304212061701524,0.9437762840385101,0.00390625,0.0078125,-0.009765625,0.02733011543750763,0.03169685276225209,-0.07797431945800781
349,698000000,imu1_frame,0.00617019215453781,-0.010655063690752089,0.33022805355398605,0.9438208680636743,0.0,0.00390625,-0.013671875,-0.005935341119766235,-0.005992807447910309,-0.07712459564208984
349,722000000,imu1_frame,0.008341129044980612,-0.009609015088849076,0.3300438006606931,0.9438798557235565,0.0,0.00390625,-0.013671875,-0.000631287693977356,-0.013778448104858398,-0.11598491668701172
349,747000000,imu1_frame,0.006000698388124837,-0.010482686817228783,0.329913699410318,0.943933819627915,0.0,0.00390625,-0.013671875,-0.0016473978757858276,-0.004056192934513092,-0.11629867553710938
349,773000000,imu1_frame,0.003923388257540784,-0.012056279365495541,0.3298207974761198,0.9439584178896113,0.0,-0.001953125,-0.009765625,-0.017284423112869263,0.04439684236422181,-0.11600780487060547
349,797000000,imu1_frame,0.005814611304427337,-0.01061259208364125,0.3297072365534933,0.9440056680703265,-0.001953125,0.0,-0.0078125,-0.0028357505798339844,0.00016408786177635193,-0.1162881851196289
349,822000000,imu1_frame,0.008054269777124284,-0.009545936481451613,0.32958463550599565,0.9440434163074436,-0.001953125,0.0,-0.0078125,0.0024249106645584106,-0.04806673526763916,-0.11610126495361328
349,848000000,imu1_frame,0.005718786340205063,-0.010928676591839761,0.3295890547758438,0.9440439155477418,-0.005859375,-0.01953125,-0.001953125,-0.008045673370361328,0.0039399005472660065,-0.11617565155029297
349,873000000,imu1_frame,0.006557319950962285,-0.008911666110395252,0.3296622213000368,0.9440341114651117,-0.01171875,-0.0234375,0.0078125,0.023764997720718384,-0.024514533579349518,-0.11675739288330078
349,898000000,imu1_frame,0.005553766839857227,-0.011434299092724339,0.3297227635205159,0.9439922201451347,-0.0078125,-0.015625,0.00390625,-0.016315877437591553,0.010278066620230675,-0.11599159240722656
349,922000000,imu1_frame,0.006315330028413777,-0.009372380866939978,0.3297508014145033,0.9440003623145544,-0.0078125,-0.015625,0.00390625,0.016817957162857056,-0.017059817910194397,-0.1166534423828125
349,948000000,imu1_frame,0.007973050329075334,-0.011575066543921993,0.32978248275124405,0.9439523093744615,-0.0078125,-0.015625,0.00390625,0.0045562684535980225,0.005626074969768524,-0.11138153076171875
349,973000000,imu1_frame,0.01011314132084982,-0.012999515068138462,0.32973172022722674,0.9439309983556062,-0.005859375,-0.01171875,-0.001953125,-0.03550723195075989,-0.024688199162483215,-0.10994148254394531
349,998000000,imu1_frame,0.007958203718588498,-0.011615331234786582,0.3297541152709283,0.9439618501484935,-0.0078125,0.0,0.0,0.003911077976226807,0.00615161657333374,-0.11136817932128906
350,23000000,imu1_frame,0.010122797575885016,-0.012727352158953391,0.3297253082845278,0.9439368435191693,-0.0078125,0.0,0.0,-0.03054797649383545,-0.026623308658599854,-0.11007404327392578
350,48000000,imu1_frame,0.007816533809805792,-0.011601189697080886,0.3297507682842145,0.9439643769829362,-0.0078125,0.0,0.0,0.005085110664367676,0.008673369884490967,-0.1114187240600586
350,72000000,imu1_frame,0.009996409422698556,-0.012590028268803398,0.3296102210819267,0.9439802249756971,-0.0078125,-0.0078125,-0.009765625,-0.027187734842300415,-0.02521315962076187,-0.11019229888916016
350,98000000,imu1_frame,0.007624210321106726,-0.0114774529730208,0.3295905687442749,0.9440234088649799,-0.001953125,0.0,-0.00390625,0.008618533611297607,0.01137978583574295,-0.11153316497802734
350,122000000,imu1_frame,0.007800433749302531,-0.009093675095395822,0.3295342967212562,0.944067585287732,-0.001953125,0.0,-0.00390625,0.012409329414367676,-0.007246427237987518,-0.11634445190429688
350,148000000,imu1_frame,0.007634482872645654,-0.011802873422099635,0.32956882629763135,0.9440269040567916,-0.00390625,-0.0078125,0.001953125,-0.03651243448257446,0.013281270861625671,-0.11528778076171875
350,172000000,imu1_frame,0.007806431802216244,-0.009324173981875556,0.32951463955857935,0.9440721485769256,0.00390625,0.005859375,-0.00390625,0.008119210600852966,-0.005876675248146057,-0.11625957489013672
350,198000000,imu1_frame,0.007572124956314064,-0.01191330383181965,0.3295273194612263,0.9440405085822089,0.0,0.0,0.0,-0.03814554214477539,0.015131697058677673,-0.11525535583496094
350,223000000,imu1_frame,0.0055925802563737284,-0.010382096304707598,0.3295485596878183,0.944064977599572,0.0,0.0,0.0,0.00285378098487854,0.002736952155828476,-0.07736873626708984
350,248000000,imu1_frame,0.007813748325460208,-0.011527391250380272,0.32952379120562775,0.944044562304946,0.0,0.0,0.0,0.006481558084487915,0.0081857368350029,-0.11145305633544922
350,273000000,imu1_frame,0.010000674000398613,-0.01278936304221937,0.32942617253692785,0.9440417446067638,-0.005859375,-0.0078125,-0.005859375,-0.030872821807861328,-0.024065591394901276,-0.1100912094116211
350,297000000,imu1_frame,0.00787646799730958,-0.011650590909818183,0.3293600107368835,0.9440996813423568,-0.0078125,-0.005859375,-0.0078125,0.0038166046142578125,0.007776089012622833,-0.11137771606445312
350,323000000,imu1_frame,0.009138506233960775,-0.013990691198516548,0.3292511253775623,0.9440945104708576,-0.0078125,-0.005859375,-0.0078125,-0.01231643557548523,-0.0004772767424583435,-0.11369132995605469
350,348000000,imu1_frame,0.008367856013957793,-0.011689436876277274,0.3291576723426877,0.944165537810605,-0.0078125,-0.005859375,-0.0078125,0.03511050343513489,-0.0010991469025611877,-0.11511039733886719
350,372000000,imu1_frame,0.009192569527127431,-0.013942695802549084,0.3290893345717662,0.9441511043102997,0.00390625,0.0,-0.005859375,-0.011764973402023315,-0.0018381401896476746,-0.11369800567626953
350,397000000,imu1_frame,0.008074129917044965,-0.011727077149538016,0.3290265450415495,0.9442133322219258,-0.00390625,-0.001953125,-0.005859375,0.03631538152694702,0.004526376724243164,-0.1151876449584961
350,422000000,imu1_frame,0.009172361945925082,-0.013995290003647427,0.3289483828599793,0.9441996404616194,-0.00390625,-0.001953125,-0.005859375,-0.012593626976013184,-0.001174136996269226,-0.1136770248413086
350,447000000,imu1_frame,0.008305508272390072,-0.011570945927663693,0.32888444450217935,0.9442627568146321,0.00390625,0.005859375,-0.005859375,0.037720829248428345,-0.0007884278893470764,-0.11518478393554688
350,473000000,imu1_frame,0.009186728316788535,-0.014073915669229864,0.3288569990493161,0.9442301642591424,0.0,-0.00390625,-0.001953125,-0.014129161834716797,-0.0009643211960792542,-0.11362838745117188
350,498000000,imu1_frame,0.008315847952433703,-0.011830669416967622,0.3288812203021244,0.9442605704288219,-0.005859375,-0.0078125,0.001953125,0.03286144137382507,0.0006900429725646973,-0.11506175994873047
350,523000000,imu1_frame,0.00921850406737895,-0.014262134992072325,0.328897584787906,0.9442128941128213,-0.005859375,-0.0078125,0.001953125,-0.01780986785888672,-0.0003264695405960083,-0.14866924285888672
350,548000000,imu1_frame,0.008578438777263667,-0.011765243927981454,0.3288530127771353,0.9442688628832686,0.00390625,0.005859375,-0.00390625,0.03238379955291748,-0.004585228860378265,-0.1501617431640625
350,573000000,imu1_frame,0.009208392954247208,-0.014257799485612978,0.3287609227852759,0.9442606506163443,0.0,-0.005859375,-0.0078125,-0.017653554677963257,-0.00021442770957946777,-0.14867496490478516
350,598000000,imu1_frame,0.008533487545334452,-0.012033889370338795,0.3287118179226554,0.944315045869184,-0.0078125,-0.013671875,-0.00390625,0.027726858854293823,-0.0020695701241493225,-0.15005207061767578
350,622000000,imu1_frame,0.009204610554293405,-0.014511778969746935,0.32866335846708195,0.9442907816010992,-0.0078125,-0.013671875,-0.00390625,-0.022308140993118286,0.0014544501900672913,-0.11337757110595703
350,648000000,imu1_frame,0.007076784439026005,-0.013167128866258312,0.32864017785801725,0.9443368992774103,-0.0078125,-0.013671875,-0.00390625,-0.01898336410522461,-0.006983213126659393,-0.11087608337402344
350,673000000,imu1_frame,0.005380831872300442,-0.01148777371938559,0.32867989008911636,0.9443561868036556,-0.0078125,-0.013671875,0.001953125,0.022902339696884155,0.013541296124458313,-0.11209869384765625
350,697000000,imu1_frame,0.00714392918027614,-0.013310141948593947,0.3286789543383834,0.9443208932202032,-0.005859375,-0.015625,0.001953125,-0.022055625915527344,-0.007291566580533981,-0.11078357696533203
350,723000000,imu1_frame,0.0069999209957978155,-0.01612574830547348,0.32870738786264286,0.9442681899291954,-0.005859375,-0.015625,0.001953125,-0.03793415427207947,0.013472350314259529,-0.11310958862304688
350,748000000,imu1_frame,0.006648385295363055,-0.01385603535383863,0.3287298513504999,0.9442989431786502,-0.005859375,-0.015625,0.001953125,-0.02894929051399231,0.005379389971494675,-0.1106271743774414
350,773000000,imu1_frame,0.006343005465020215,-0.011456107126861865,0.32875081999097644,0.9443259089140937,-0.00390625,-0.005859375,0.001953125,0.01730307936668396,-0.004403747618198395,-0.1118927001953125
350,797000000,imu1_frame,0.006636572024144219,-0.013901389717197288,0.32870530650711083,0.9443069038981793,-0.005859375,-0.00390625,-0.00390625,-0.02970939874649048,0.005881201475858688,-0.11060619354248047
350,822000000,imu1_frame,0.009060010138948789,-0.013621521793464193,0.32861837209431005,0.9443210978699978,-0.005859375,-0.00390625,-0.00390625,-0.0049468278884887695,-0.0016132593154907227,-0.11391830444335938
350,847000000,imu1_frame,0.007263928354277576,-0.011837821613010533,0.32863960580191676,0.9443532764927982,0.001953125,0.00390625,0.0,0.03950473666191101,0.020082857459783554,-0.11537933349609375
350,873000000,imu1_frame,0.009092728657419941,-0.013782593600857786,0.32859355272791874,0.9443270829033978,-0.00390625,-0.0078125,-0.001953125,-0.008127272129058838,-0.001190274953842163,-0.11382102966308594
350,897000000,imu1_frame,0.008183911231539361,-0.011536320292983026,0.32862103497760997,0.944355945754193,0.001953125,0.001953125,0.001953125,0.03916272521018982,0.0011590495705604553,-0.11523914337158203
350,923000000,imu1_frame,0.009149632311879818,-0.0138447010664041,0.3285214965765635,0.9443506947993601,0.001953125,0.0078125,-0.0078125,-0.009632736444473267,-0.0018654614686965942,-0.11376667022705078
350,948000000,imu1_frame,0.008264645662281264,-0.011399550350940129,0.3284339025390384,0.9444220018333176,0.001953125,0.0078125,-0.0078125,0.006028085947036743,-0.0012621879577636719,-0.11136817932128906
350,972000000,imu1_frame,0.008948932659527948,-0.013875493878484893,0.3284748580964685,0.9443683893864663,-0.005859375,-0.013671875,0.00390625,-0.044065117835998535,0.0020213574171066284,-0.10991573333740234
350,998000000,imu1_frame,0.0082618929082025,-0.011338648048860847,0.32847505555676687,0.9444084466283519,0.0,0.001953125,0.0,0.007166475057601929,-0.0015910342335700989,-0.11139678955078125
351,22000000,imu1_frame,0.00735518776373093,-0.013541000030743381,0.32849545968309346,0.9443798364528547,0.0,0.001953125,0.0,0.007492721080780029,-0.009764999151229858,-0.11450862884521484
351,47000000,imu1_frame,0.007613565999817952,-0.01102885647171058,0.3284843209544003,0.9444143417085636,0.0,0.001953125,0.0,-0.02201703190803528,0.0083894282579422,-0.11563968658447266
351,72000000,imu1_frame,0.00787526709001293,-0.008759142020065355,0.3284913380929654,0.9444335330753703,-0.0078125,-0.015625,0.001953125,0.01819862425327301,-0.011017173528671265,-0.11643791198730469
351,98000000,imu1_frame,0.007558021713103422,-0.01143152782258795,0.32850408462421654,0.9444031251878783,-0.00390625,-0.005859375,0.0,-0.029094219207763672,0.012006431818008423,-0.1154794692993164
351,122000000,imu1_frame,0.00714301453936031,-0.013882692499996557,0.32851524845911007,0.9443696202875704,-0.00390625,-0.005859375,0.0,0.0025474727153778076,-0.003647439181804657,-0.11438560485839844
351,148000000,imu1_frame,0.006762799807030017,-0.016514099123572525,0.3285487354772959,0.9443184195414047,-0.001953125,-0.00390625,0.001953125,-0.04357382655143738,0.020286478102207184,-0.11292552947998047
351,173000000,imu1_frame,0.006587014215428708,-0.014073589180024803,0.3285706780360237,0.9443515525831814,-0.001953125,-0.00390625,0.001953125,-0.032564640045166016,0.007859596982598305,-0.11052417755126953
351,198000000,imu1_frame,0.006469234680057808,-0.011671457051217407,0.32854436640591317,0.9443942637457583,0.0,-0.0078125,-0.001953125,0.012527316808700562,-0.005405660718679428,-0.11176300048828125
351,223000000,imu1_frame,0.006522899211875214,-0.014124485251089301,0.328525411675946,0.9443669861793209,0.0,0.00390625,-0.001953125,-0.03309065103530884,0.009355554357171059,-0.11051177978515625
351,248000000,imu1_frame,0.006459726989027444,-0.011579697832496143,0.32849854478187157,0.9444113979625236,0.0,0.00390625,-0.001953125,0.014284223318099976,-0.005831975489854813,-0.11180782318115234
351,272000000,imu1_frame,0.006527363191690185,-0.013935598826743912,0.3285023638876746,0.9443777790351242,0.0,0.00390625,0.0,-0.029632508754730225,0.008052516728639603,-0.11061477661132812
351,298000000,imu1_frame,0.0064383626643212165,-0.011343244966843202,0.3285217473927034,0.9444063425082815,-0.001953125,0.0,0.001953125,0.018784642219543457,-0.006950106471776962,-0.11191844940185547
351,323000000,imu1_frame,0.0088387702682952,-0.011972143910469758,0.3285138793438924,0.9443819010277346,-0.001953125,0.0,0.001953125,-0.00823250412940979,-0.008159242570400238,-0.1109151840209961
351,347000000,imu1_frame,0.0064908699411132175,-0.012575605915558308,0.3285704489382676,0.9443734339909025,-0.001953125,0.0,0.001953125,-0.004300594329833984,1.0546296834945679e-05,-0.1542978286743164
351,372000000,imu1_frame,0.0088464028658916,-0.011801110445669507,0.3285111881046957,0.9443849184726663,-0.001953125,0.0,-0.001953125,-0.005124509334564209,-0.048462092876434326,-0.153961181640625
351,397000000,imu1_frame,0.006429816130241952,-0.012529777543432083,0.32852366762980467,0.9443907358431176,-0.001953125,0.0,-0.001953125,-0.003060758113861084,0.0008296258747577667,-0.11136722564697266
351,423000000,imu1_frame,0.00888960988069222,-0.011755019558046453,0.3284621064308062,0.9444021595646617,-0.001953125,0.0,-0.001953125,-0.004546612501144409,-0.04956994950771332,-0.11099815368652344
351,447000000,imu1_frame,0.0065864241109927805,-0.012505663613626804,0.3284738959513449,0.9444072887655824,-0.001953125,-0.001953125,-0.001953125,-0.003618955612182617,-0.002230539917945862,-0.11133861541748047
351,473000000,imu1_frame,0.007301602415994864,-0.015036100386643755,0.32844336645048877,0.9443757500709088,-0.001953125,-0.001953125,-0.001953125,-0.01975393295288086,0.0008097328245639801,-0.11368846893310547
351,498000000,imu1_frame,0.006713596865752293,-0.012602497065025087,0.32847191784557084,0.9444057940693199,0.00390625,0.0,0.001953125,0.028933703899383545,-0.003956768661737442,-0.11516475677490234
351,522000000,imu1_frame,0.007314841180295048,-0.014969412977623107,0.32849084716607413,0.9443601924592796,0.00390625,-0.00390625,0.001953125,-0.01861017942428589,0.00015330687165260315,-0.1137237548828125
351,547000000,imu1_frame,0.00665263894930745,-0.012608267971210224,0.3285205064668974,0.9443892475057674,0.00390625,-0.00390625,0.001953125,0.02921631932258606,-0.0027802810072898865,-0.11517810821533203
351,572000000,imu1_frame,0.0073601440177025355,-0.015028399213734478,0.3284928217555558,0.9443582167547356,0.00390625,-0.001953125,-0.001953125,-0.019989579916000366,-0.00030332431197166443,-0.11367607116699219
351,597000000,imu1_frame,0.00659970281962395,-0.012671572311808014,0.3284780889493133,0.9444035261783208,0.00390625,-0.001953125,-0.001953125,-0.006766617298126221,-0.0014089010655879974,-0.11125373840332031
351,623000000,imu1_frame,0.005209163744792811,-0.010520166704315406,0.3284694955755233,0.944441624020222,0.00390625,-0.001953125,-0.001953125,0.04187062382698059,0.010441599413752556,-0.11255073547363281
351,648000000,imu1_frame,0.0063951053057263885,-0.012759549592136127,0.3284358593414674,0.944418436298745,0.00390625,-0.001953125,-0.001953125,0.028080910444259644,0.0029205717146396637,-0.11516857147216797
351,672000000,imu1_frame,0.0073995147084684396,-0.015084449964095144,0.3283782604954116,0.9443968575685582,-0.005859375,-0.01171875,-0.00390625,-0.021271854639053345,-0.0007095560431480408,-0.1136322021484375
351,697000000,imu1_frame,0.008117170428031709,-0.012856956652877716,0.328311882070135,0.9444469907313136,-0.005859375,-0.01171875,-0.00390625,-0.01991686224937439,0.010782167315483093,-0.11072540283203125
351,723000000,imu1_frame,0.008795301686955777,-0.010517590524798925,0.32824172727875695,0.9444942516663859,-0.005859375,-0.01171875,-0.00390625,0.01892116665840149,-0.016772575676441193,-0.11156940460205078
351,748000000,imu1_frame,0.008064121383682924,-0.012946954114312641,0.3282610275983375,0.944463892420221,-0.001953125,-0.001953125,0.0,-0.021233975887298584,0.012323588132858276,-0.11069583892822266
351,773000000,imu1_frame,0.006539979095338377,-0.01497060999363267,0.32828862307364176,0.9444361754349858,-0.001953125,-0.001953125,0.0,-0.01365324854850769,0.014395711943507195,-0.11393356323242188
351,798000000,imu1_frame,0.006473216736034395,-0.012503153920987702,0.32828478600901695,0.9444738577018054,-0.001953125,-0.001953125,0.0,-0.002838134765625,-0.00021144375205039978,-0.11136913299560547
351,822000000,imu1_frame,0.008608449539022575,-0.013713062659529015,0.3282340719115066,0.9444576435952127,0.0,-0.005859375,-0.001953125,-0.03886404633522034,-0.03187844157218933,-0.11011981964111328
351,848000000,imu1_frame,0.00620696026358427,-0.014716596333807626,0.32825000429928547,0.9444558380962833,0.0,-0.005859375,-0.001953125,-0.00682792067527771,0.018900057300925255,-0.14931964874267578
351,873000000,imu1_frame,0.008515637969579848,-0.013706401352099978,0.32816560442458215,0.9444823738665508,0.001953125,-0.005859375,-0.00390625,-0.002984672784805298,-0.03023023158311844,-0.1492166519165039
351,898000000,imu1_frame,0.006408883537623602,-0.012498503298739985,0.32814764919338646,0.9445220134840409,0.001953125,-0.005859375,-0.00390625,-0.0023340582847595215,0.000906873494386673,-0.11138725280761719
351,923000000,imu1_frame,0.00891635556389229,-0.013004526551897677,0.32806694404397757,0.9445228748517768,0.001953125,-0.005859375,-0.00390625,-0.02774643898010254,-0.0421626940369606,-0.11038398742675781
351,948000000,imu1_frame,0.00930985269816126,-0.015542104825179839,0.3280244449695681,0.9444954913194389,0.001953125,-0.005859375,-0.00390625,-0.04194808006286621,0.005899786949157715,-0.11273479461669922
351,973000000,imu1_frame,0.008916476123854902,-0.013150475185571057,0.32799723612376513,0.9445450622130728,-0.001953125,-0.005859375,-0.001953125,0.0047206878662109375,-0.0021883100271224976,-0.11421585083007812
351,998000000,imu1_frame,0.0067641230607610224,-0.01450471700278154,0.32801044782354555,0.9445385148010034,-0.001953125,-0.005859375,-0.001953125,-0.0064830482006073,0.00717569887638092,-0.11414337158203125
352,22000000,imu1_frame,0.006432597365318885,-0.012200950589719933,0.3279880232964076,0.9445811850073863,-0.001953125,-0.005859375,-0.001953125,0.0030133426189422607,-0.0014850609004497528,-0.1115255355834961
352,48000000,imu1_frame,0.006855421372806628,-0.014820496834300863,0.3280096608765745,0.9445332278130931,-0.001953125,-0.00390625,0.001953125,-0.048053205013275146,0.007515203207731247,-0.1100320816040039
352,73000000,imu1_frame,0.00776161483089452,-0.012548367436985335,0.32801244075871927,0.9445581689432317,-0.001953125,-0.00390625,0.001953125,0.02323630452156067,-0.02378702163696289,-0.11489391326904297
352,98000000,imu1_frame,0.005255318841602471,-0.012534344691825034,0.32806955504849994,0.944555789182036,-0.001953125,-0.00390625,0.001953125,0.004403412342071533,0.022412128746509552,-0.1116323471069336
352,122000000,imu1_frame,0.007610873449355733,-0.012508616290278511,0.3280133320811367,0.9445596133123998,-0.00390625,0.0,-0.001953125,-0.01021990180015564,-0.02125866338610649,-0.111053466796875
352,147000000,imu1_frame,0.006836175466827717,-0.014919310542911452,0.3280064358138279,0.9445329316347948,-0.00390625,0.0,-0.001953125,-0.014597475528717041,0.008503211662173271,-0.11388492584228516
352,172000000,imu1_frame,0.007691964186541271,-0.01256890398990166,0.3279646960236594,0.9445750443990961,0.0,0.0,-0.001953125,0.023306816816329956,-0.02238363027572632,-0.11490535736083984
352,198000000,imu1_frame,0.010268303862353294,-0.012916565626227174,0.32790360872558283,0.944567068901385,0.0,0.0,-0.001953125,0.0003857612609863281,0.0064812228083610535,-0.11382770538330078
352,222000000,imu1_frame,0.008033023432634664,-0.013795565892807149,0.3279201411342025,0.9445705552973546,0.0,0.0,-0.001953125,-0.0015201866626739502,-0.02082829922437668,-0.07510662078857422
352,248000000,imu1_frame,0.006029522837654089,-0.012137098995836029,0.32792136288420154,0.9446078103882497,0.0,0.0,-0.001953125,0.006778091192245483,0.005528934299945831,-0.11165332794189453
352,273000000,imu1_frame,0.007938684151662616,-0.013764409467996199,0.32789675597698376,0.9445799255466464,-0.001953125,-0.001953125,0.0,-0.035495251417160034,-0.019293881952762604,-0.11030864715576172
352,297000000,imu1_frame,0.006105036306213964,-0.012230662883791148,0.32791903589042015,0.9446069263549894,-0.001953125,-0.001953125,0.0,0.004566967487335205,0.00473393127322197,-0.11159229278564453
352,322000000,imu1_frame,0.005941750074471295,-0.014758649595599721,0.3279239312215083,0.9445701526093224,-0.001953125,-0.001953125,0.0,0.0331648588180542,-0.015103799290955067,-0.11029624938964844
352,347000000,imu1_frame,0.0057888698109109715,-0.017341498180061726,0.32783347216698305,0.9445586143559982,-0.00390625,-0.005859375,-0.0078125,-0.013529777526855469,0.0042455741204321384,-0.10871028900146484
352,373000000,imu1_frame,0.0059971631208117215,-0.014746881504159875,0.3277811614690984,0.9446195391301059,0.0,0.0,-0.00390625,0.0330292284488678,-0.01624932512640953,-0.11029052734375
352,398000000,imu1_frame,0.00826192312380711,-0.013684976019902746,0.3276971294956073,0.9446475815763095,0.0,0.0,-0.00390625,-0.000930100679397583,-0.025835588574409485,-0.11415481567382812
352,423000000,imu1_frame,0.005976678664625268,-0.014908939745956746,0.3277327480726823,0.9446339230985298,-0.005859375,-0.01171875,0.0,-0.008892744779586792,0.024213981814682484,-0.11410713195800781
352,448000000,imu1_frame,0.004378906419273148,-0.013128405456338836,0.327753664509498,0.9446618471968373,-0.005859375,-0.01171875,0.0,-0.0009449422359466553,0.003250635927543044,-0.11149978637695312
352,473000000,imu1_frame,0.0068080549418113746,-0.013851336432799392,0.32774132258497,0.9446414220947487,-0.001953125,-0.0078125,0.001953125,-0.029849529266357422,-0.0369737334549427,-0.11058807373046875
352,497000000,imu1_frame,0.00819593282304235,-0.015909669494539088,0.32774406455988236,0.9445970237341964,-0.001953125,-0.0078125,0.001953125,-0.04157841205596924,-0.010343965142965317,-0.11288928985595703
352,523000000,imu1_frame,0.006761392218287973,-0.013851077057106231,0.32778589054728496,0.9446262971131768,-0.001953125,-0.0078125,0.001953125,0.00560837984085083,0.0029627569019794464,-0.11450576782226562
352,547000000,imu1_frame,0.008297824777262305,-0.015798776083742253,0.32778609369473716,0.9445834116469369,-0.001953125,-0.0078125,0.001953125,-0.04018625617027283,-0.012920577079057693,-0.11292457580566406
352,572000000,imu1_frame,0.006761832834662585,-0.013827525839245302,0.32778387824164995,0.9446273372662597,0.0,0.0,-0.001953125,0.006040424108505249,0.0028030462563037872,-0.11451911926269531
352,597000000,imu1_frame,0.00829746996022274,-0.015803330705967573,0.3277399947960758,0.9445993343962958,0.0,0.0,-0.001953125,-0.04026547074317932,-0.012901671230793,-0.11292266845703125
352,623000000,imu1_frame,0.006713577615246129,-0.013739480933923178,0.3277373784709009,0.9446451001790522,0.0,0.0,-0.001953125,0.007976651191711426,0.003115132451057434,-0.0755167007446289
352,648000000,imu1_frame,0.00824914474953588,-0.015695144623626967,0.32771743307176415,0.9446093891694062,0.001953125,0.001953125,0.0,-0.037957847118377686,-0.012711025774478912,-0.07394218444824219
352,672000000,imu1_frame,0.006768176776202611,-0.01383658385043581,0.3277817016506673,0.944627914468691,0.0,-0.001953125,0.00390625,0.005832672119140625,0.0027432776987552643,-0.07544994354248047
352,698000000,imu1_frame,0.006225990014034886,-0.011318455515614405,0.32783209749589953,0.944647683247318,0.0,-0.001953125,0.00390625,0.020636528730392456,-0.0033707618713378906,-0.11198234558105469
352,723000000,imu1_frame,0.006735953234519557,-0.013792979315039594,0.32782924143688397,0.944612285074969,-0.001953125,-0.001953125,0.0,-0.028313755989074707,0.003073807805776596,-0.11063861846923828
352,748000000,imu1_frame,0.00825554679875294,-0.01579932315215706,0.32780794962775045,0.9445761882960196,-0.001953125,-0.001953125,0.0,-0.039926767349243164,-0.012128539383411407,-0.11293888092041016
352,772000000,imu1_frame,0.006821579629532411,-0.013904636483960765,0.32784936605286696,0.9446030490710583,0.0,-0.001953125,0.001953125,0.0042317211627960205,0.0022149421274662018,-0.11446094512939453
352,798000000,imu1_frame,0.008430809361475826,-0.01597739791405209,0.327851289702229,0.9445566028830626,0.0,-0.001953125,0.001953125,-0.04433870315551758,-0.014206714928150177,-0.11277103424072266
352,822000000,imu1_frame,0.007262526208759904,-0.013906724784151434,0.3278875968538397,0.9445864611290269,0.0,-0.001953125,0.001953125,-0.03378990292549133,-0.0059006959199905396,-0.07137012481689453
352,848000000,imu1_frame,0.004758435267071246,-0.013249160085483705,0.32794771932607514,0.944590975205493,0.0,-0.001953125,0.001953125,-0.005605936050415039,-0.002927057445049286,-0.11137008666992188
352,872000000,imu1_frame,0.002489944739415512,-0.012484043446909366,0.3279324336122584,0.9446154073587579,-0.005859375,-0.0078125,-0.00390625,0.02305804193019867,0.034048862755298615,-0.1120767593383789
352,897000000,imu1_frame,0.004788673331786415,-0.013492043575565757,0.3278531153898332,0.9446202242684923,-0.005859375,-0.0078125,-0.00390625,0.02487313747406006,0.03710642480291426,-0.1151437759399414
352,922000000,imu1_frame,0.007144360702194144,-0.014335957509704626,0.32777033186755183,0.944621642764907,-0.005859375,-0.0078125,-0.00390625,-0.005794882774353027,-0.001005571335554123,-0.0750722885131836
352,948000000,imu1_frame,0.005841228684434562,-0.012171613769410828,0.3278092368790998,0.9446474665622339,0.0,-0.005859375,0.001953125,0.042507320642471313,0.009195705875754356,-0.07652473449707031
352,973000000,imu1_frame,0.007125475479027674,-0.014366678198756455,0.32777048587462004,0.9446212652413911,-0.001953125,-0.00390625,-0.001953125,-0.006241023540496826,-0.00045993179082870483,-0.07506084442138672
352,998000000,imu1_frame,0.006298914512949754,-0.012056193865357504,0.32775399827149765,0.9446651726842091,-0.001953125,-0.00390625,-0.001953125,0.041708528995513916,-1.0304152965545654e-05,-0.11553287506103516
353,23000000,imu1_frame,0.0071123308056044695,-0.014472320726441746,0.32772233488997243,0.9446364580607545,-0.00390625,-0.00390625,-0.001953125,-0.008105069398880005,0.0004439055919647217,-0.11406707763671875
353,48000000,imu1_frame,0.006719310672739547,-0.012066019054506629,0.3277435566212467,0.9446657732454982,-0.005859375,-0.00390625,0.001953125,0.03883492946624756,-0.007712759077548981,-0.11542129516601562
353,73000000,imu1_frame,0.007122774512414274,-0.014588699000794505,0.32774218783320436,0.9446277014035817,-0.001953125,-0.00390625,0.0,-0.010321110486984253,0.0010034553706645966,-0.1139984130859375
353,97000000,imu1_frame,0.006828866303092006,-0.012256196909286917,0.327740590382559,0.9446635684930519,-0.001953125,-0.00390625,0.0,0.03462234139442444,-0.008517809212207794,-0.11530303955078125
353,123000000,imu1_frame,0.005441017746007909,-0.01451484867965094,0.3277632191753671,0.9446327257984952,-0.001953125,-0.00390625,0.0,0.0018128752708435059,-0.007473459467291832,-0.11445331573486328
353,147000000,imu1_frame,0.004059085708691279,-0.016533812486532965,0.32778370728604345,0.9445993849805783,-0.001953125,-0.00390625,0.0,-0.026604145765304565,0.030988190323114395,-0.11348438262939453
353,173000000,imu1_frame,0.005546372409628232,-0.01437673090276077,0.32776160110151303,0.9446347866794956,0.001953125,0.0,0.0,0.0036876797676086426,-0.010304399766027927,-0.11450862884521484
353,198000000,imu1_frame,0.008059010189513802,-0.01414504610014556,0.3277224450002593,0.9446337751047449,0.001953125,0.0,0.0,-0.008125752210617065,-0.019132573157548904,-0.11396980285644531
353,222000000,imu1_frame,0.005765327649146022,-0.013495060444670354,0.32775700198464114,0.9446480783819614,0.001953125,0.0,0.0,-0.016594409942626953,-0.01999879628419876,-0.11103439331054688
353,247000000,imu1_frame,0.0033728775732198707,-0.012844774543194572,0.3277679731045996,0.9446649095159156,0.001953125,0.0,-0.001953125,0.010736048221588135,0.020013688132166862,-0.11179733276367188
353,273000000,imu1_frame,0.0058615998300530015,-0.013573323735405316,0.3277565638136046,0.944646516643821,-0.001953125,-0.001953125,0.001953125,-0.018655776977539062,-0.021275008097290993,-0.11097145080566406
353,298000000,imu1_frame,0.004692492287777055,-0.015822334532576143,0.3277975246998804,0.9446038413253991,-0.001953125,-0.001953125,0.001953125,-0.017528265714645386,0.01473808940500021,-0.11382675170898438
353,322000000,imu1_frame,0.005785564473813537,-0.013720083102395404,0.32780160411891357,0.9446292367381235,-0.001953125,-0.001953125,0.001953125,0.014277011156082153,-0.01891673542559147,-0.11481666564941406
353,348000000,imu1_frame,0.004569663769101022,-0.016060027080938774,0.3278440159507056,0.944584297407336,-0.001953125,-0.001953125,0.001953125,-0.02112811803817749,0.018545381724834442,-0.11370086669921875
353,372000000,imu1_frame,0.005675352014409486,-0.013930500464433879,0.3278709252580917,0.944602767255488,0.0,0.0,0.00390625,0.011097490787506104,-0.015511594712734222,-0.11472702026367188
353,398000000,imu1_frame,0.004476818058789851,-0.01624196564121145,0.3279376073256676,0.9445491423709487,0.0,0.0,0.00390625,-0.02388942241668701,0.02145841158926487,-0.1136016845703125
353,423000000,imu1_frame,0.005629488504900671,-0.01410074475745067,0.327918983573108,0.9445838332667135,-0.001953125,-0.005859375,0.0,0.008247941732406616,-0.013558350503444672,-0.11464405059814453
353,447000000,imu1_frame,0.008020886223229674,-0.014400077588283723,0.32788119992721343,0.9445751541745824,-0.001953125,-0.005859375,0.0,-0.012599021196365356,-0.016741018742322922,-0.11384010314941406
353,472000000,imu1_frame,0.005559065724037952,-0.013973379079906298,0.3278728168022321,0.9446021688877997,0.0,0.0,-0.00390625,0.011050999164581299,0.025973438285291195,-0.1147298812866211
353,497000000,imu1_frame,0.004597354325004159,-0.01628169510357111,0.32784167716352597,0.9445811799164596,0.0,0.0,-0.00390625,-0.025397181510925293,0.01945417746901512,-0.1135549545288086
353,522000000,imu1_frame,0.006528566720211935,-0.014693695251676903,0.32776350047702135,0.9446229728793812,0.0,0.0,-0.00390625,-0.008454620838165283,0.0126547422260046,-0.11409664154052734
353,548000000,imu1_frame,0.008520462792439676,-0.012991151412490236,0.3277282855125179,0.9446442730328735,0.0,0.00390625,0.0,0.010221004486083984,-0.03504544496536255,-0.11443233489990234
353,573000000,imu1_frame,0.006608162285675248,-0.01463632623048933,0.32778465698009807,0.9446159689493505,-0.001953125,0.0,0.001953125,-0.007905900478363037,0.01082443818449974,-0.11410903930664062
353,597000000,imu1_frame,0.004208135398696267,-0.014979032936979544,0.32784400446339207,0.9446037417383791,-0.001953125,0.0,0.001953125,0.0011423230171203613,0.018291562795639038,-0.07535552978515625
353,622000000,imu1_frame,0.0066063750667332615,-0.0143629778606748,0.3278286643547974,0.944604905504307,-0.001953125,0.0,0.001953125,-0.0028498470783233643,0.009119799360632896,-0.11426448822021484
353,648000000,imu1_frame,0.00909732735237787,-0.013711561607558823,0.3277626458340734,0.9446167898725777,-0.001953125,0.0,-0.001953125,-0.006775617599487305,-0.041068144142627716,-0.11385726928710938
353,673000000,imu1_frame,0.006651476954213131,-0.014275242862466488,0.32778041815404896,0.9446226615799042,0.0,0.005859375,-0.001953125,-0.001517653465270996,0.00770903006196022,-0.11430168151855469
353,697000000,imu1_frame,0.00441868276924206,-0.015143582918873771,0.3277939346927444,0.9446175329293931,0.0,0.005859375,-0.001953125,-0.0032449662685394287,0.015442447736859322,-0.11428546905517578
353,722000000,imu1_frame,0.006805711298650702,-0.014401148082061319,0.32777897655913607,0.9446201521000297,0.0,-0.001953125,0.001953125,-0.004829674959182739,-0.03339473158121109,-0.11419105529785156
353,747000000,imu1_frame,0.008966505250734443,-0.013153779862623905,0.32776457846418633,0.9446253018859427,0.0,-0.001953125,0.001953125,0.004359126091003418,-0.042227208614349365,-0.11419677734375
353,773000000,imu1_frame,0.0067016015600264356,-0.014428213704508381,0.32777980092754183,0.9446201973755,0.0,0.001953125,-0.001953125,-0.004662543535232544,0.007763762027025223,-0.11420249938964844
353,797000000,imu1_frame,0.008842614672879218,-0.013332680717667054,0.32772114257474927,0.9446390318529765,0.0,0.001953125,-0.001953125,0.0018535256385803223,-0.03880707174539566,-0.11414623260498047
353,823000000,imu1_frame,0.006484881259565961,-0.014422766321851842,0.32773712890320555,0.9446365991559708,0.0,0.001953125,-0.001953125,-0.00317266583442688,0.011716410517692566,-0.07520008087158203
353,848000000,imu1_frame,0.008801818632691416,-0.013491346271163024,0.32769817410954555,0.9446451282094344,0.0,-0.00390625,0.0,-0.0008125901222229004,-0.03704448044300079,-0.07501506805419922
353,872000000,imu1_frame,0.006576336613583987,-0.014394619427232995,0.3277132301366865,0.9446446874469093,0.0,-0.001953125,-0.001953125,-0.003237992525100708,0.009839601814746857,-0.07519245147705078
353,898000000,imu1_frame,0.008026945524735004,-0.01658486972714212,0.32766846782869,0.944613087688539,0.0,-0.001953125,-0.001953125,-0.013893663883209229,-0.0029251426458358765,-0.10860824584960938
353,923000000,imu1_frame,0.007099784844557311,-0.014291102396984971,0.32765634984513786,0.9446622009234839,0.0,-0.001953125,-0.001953125,-0.004676789045333862,-0.0005073770880699158,-0.11417198181152344
353,947000000,imu1_frame,0.006267502322655864,-0.012064484528212795,0.3276654031022888,0.9446960094324092,0.00390625,-0.001953125,0.0,0.04176020622253418,0.0005981661379337311,-0.11553764343261719
353,973000000,imu1_frame,0.007169590625408717,-0.014557152265078187,0.32765618693373105,0.9446576678629373,-0.001953125,-0.00390625,0.0,-0.010035067796707153,-9.175390005111694e-05,-0.11400318145751953
353,997000000,imu1_frame,0.0047953891799325825,-0.015017372732648918,0.3276934961175979,0.9446525580132875,-0.001953125,-0.00390625,0.0,-0.0033291876316070557,0.007645254023373127,-0.11429214477539062
354,23000000,imu1_frame,0.007255944549131847,-0.014259719996937923,0.32762918795721907,0.9446709092868278,-0.001953125,0.0,-0.001953125,-0.005095869302749634,-0.04266321286559105,-0.11414623260498047
354,47000000,imu1_frame,0.004847401552677819,-0.013997037292682361,0.3276429949274883,0.9446854786224674,-0.001953125,0.0,-0.001953125,0.01517421007156372,0.039194656754261814,-0.11486053466796875
354,73000000,imu1_frame,0.007466164391317859,-0.014214006903652513,0.3276044873735781,0.9446785264044694,0.00390625,0.00390625,0.0,-0.005596518516540527,-0.007783286273479462,-0.11411190032958984
354,98000000,imu1_frame,0.005100974732012278,-0.014869519621994476,0.32764431124524745,0.9446703566597302,0.00390625,0.00390625,0.0,-0.0025566816329956055,0.0010393987176939845,-0.1143198013305664
354,123000000,imu1_frame,0.007516631555003189,-0.014047857736659517,0.3276067544319015,0.9446798253343155,0.00390625,0.00390625,0.0,-0.002852410078048706,-0.00977875292301178,-0.11418914794921875
354,147000000,imu1_frame,0.005288474749541112,-0.014922495533083918,0.3276213738428954,0.9446764454368396,0.0,0.0078125,-0.001953125,-0.004735112190246582,0.03697156463749707,-0.11425113677978516
354,173000000,imu1_frame,0.007749221217800757,-0.013931528200428511,0.32755870127093445,0.9446963317988576,0.00390625,0.00390625,-0.001953125,-0.002190917730331421,-0.014834247529506683,-0.1141824722290039
354,198000000,imu1_frame,0.006111044404891031,-0.012009519609595998,0.32755672383205137,0.9447354228816878,0.00390625,0.00390625,-0.001953125,0.008624821901321411,0.0031050704419612885,-0.1116943359375
354,222000000,imu1_frame,0.007094179803308278,-0.014151160229658429,0.32752583793421525,0.944709607637481,0.00390625,0.00390625,-0.001953125,-0.0020515024662017822,-0.001342814415693283,-0.11425209045410156
354,247000000,imu1_frame,0.00663238071834404,-0.016608961815542115,0.327537143416909,0.9446690285998096,0.0,0.0,0.0,-0.04447004199028015,0.022929202765226364,-0.11289787292480469
354,272000000,imu1_frame,0.007093914683945926,-0.014152561234083342,0.3275258449951421,0.9447095861931277,0.0,0.0,0.0,-0.0020759105682373047,-0.0013289786875247955,-0.11425113677978516
354,298000000,imu1_frame,0.006613363714655074,-0.016709296142438098,0.3275375639580993,0.9446672467272251,0.0,0.0,0.0,-0.046200454235076904,0.023923108354210854,-0.1128377914428711
354,323000000,imu1_frame,0.007074965310609664,-0.014253419475189502,0.32752634917103474,0.9447080371722321,0.0,0.0,0.0,-0.0038167238235473633,-0.00033297017216682434,-0.11420059204101562
354,348000000,imu1_frame,0.004706396363688834,-0.015059683228964608,0.32756434037226684,0.9446971253744731,0.0,0.0,0.0,-0.0035416483879089355,0.009517422877252102,-0.11428356170654297
354,373000000,imu1_frame,0.007072779677793193,-0.014254179575743563,0.32752638516741334,0.9447080295897876,0.0,0.0,0.0,-0.003816664218902588,-0.03935020789504051,-0.11420059204101562
354,397000000,imu1_frame,0.007839321344243741,-0.011979102286865032,0.32750875869955826,0.9447396779665482,0.0,0.0,0.0,0.03328326344490051,-0.029017508029937744,-0.1151437759399414
354,423000000,imu1_frame,0.007774773435658854,-0.014581215500035632,0.3275176097990803,0.9447005643716231,0.0,0.0,0.0,0.024715900421142578,-0.011158589273691177,-0.10990619659423828
354,447000000,imu1_frame,0.007715261297951684,-0.016978843975682806,0.3275238005963969,0.9446588556951369,0.0,0.0,0.0,-0.0191652774810791,0.005298443138599396,-0.1084451675415039
354,472000000,imu1_frame,0.007777286705069498,-0.014480007671533677,0.32751730697943116,0.944702205363299,0.0,0.0,0.0,0.026568055152893066,-0.011853311210870743,-0.10996246337890625
354,497000000,imu1_frame,0.005411712043216855,-0.013670314623350001,0.3275525684222672,0.9447185563917094,0.0,0.0,0.0,0.01759403944015503,0.02665399480611086,-0.11492538452148438
354,523000000,imu1_frame,0.007192800155549641,-0.015565125965423098,0.3275264985448914,0.9446863941173951,0.0,0.0,0.0,0.010275721549987793,0.005891986191272736,-0.1094970703125
354,547000000,imu1_frame,0.008835244390907796,-0.017312405813102536,0.3275004937977156,0.9446510708318537,0.0,0.0,0.0,-0.03248819708824158,-0.01325351744890213,-0.10785961151123047
354,573000000,imu1_frame,0.007055875487756442,-0.015419462296504113,0.32752858136552354,0.9446890934017792,0.0,0.0,0.0,0.013840645551681519,0.00748806819319725,-0.10962295532226562
354,597000000,imu1_frame,0.0070996435148148055,-0.013019839356924722,0.3275230214342021,0.9447268119809522,0.0,0.0,0.0,0.01880061626434326,-0.008689787238836288,-0.11485099792480469
354,623000000,imu1_frame,0.007052247092961351,-0.015618495944283316,0.3275289577275514,0.9446857203563955,0.0,0.0,0.0,-0.028872638940811157,0.008829949423670769,-0.11340999603271484
354,648000000,imu1_frame,0.007097883939389625,-0.013116987315033827,0.3275232829804074,0.9447253906787392,0.0,0.0,0.0,0.017018228769302368,-0.008035078644752502,-0.11480236053466797
354,672000000,imu1_frame,0.007054062319943649,-0.015518338609301081,0.3275287701153037,0.9446874224410686,0.0,0.0,0.0,-0.027035176753997803,0.008154917508363724,-0.11347007751464844
354,697000000,imu1_frame,0.0046771529975332795,-0.014742893119229293,0.3275668681736565,0.9447013910316926,0.0,0.0,0.0,0.0024939775466918945,0.008029394783079624,-0.11447334289550781
354,722000000,imu1_frame,0.007124142483248494,-0.014230677418867183,0.32752821565820645,0.9447073633468883,0.0,0.0,0.0,-0.0037115812301635742,-0.0013860687613487244,-0.11419963836669922
354,748000000,imu1_frame,0.004579631107050826,-0.014763674857530086,0.32756836688131624,0.9447010246116663,0.0,0.0,0.0,0.002734661102294922,0.04902627877891064,-0.11448001861572266
354,773000000,imu1_frame,0.007026549021441365,-0.014251119474590308,0.32752979648503483,0.9447072380462858,0.0,0.0,0.0,-0.003464430570602417,0.0005474463105201721,-0.11421489715576172
354,798000000,imu1_frame,0.009474065654156023,-0.013738442022202627,0.327489167770578,0.9447075432554338,0.0,0.0,0.0,-0.009659349918365479,-0.04794246703386307,-0.11370563507080078
354,823000000,imu1_frame,0.007027248759288173,-0.014250975186964932,0.32752978517247777,0.9447072389401734,0.0,0.0,0.0,-0.003466308116912842,0.0005336031317710876,-0.11421489715576172
354,847000000,imu1_frame,0.009376348419921096,-0.013758697050970844,0.32749082868975776,0.9447076476190205,0.0,0.0,0.0,-0.009408235549926758,-0.04600793123245239,-0.11373138427734375
354,873000000,imu1_frame,0.006830558015894219,-0.0142921935110853,0.32753296136450155,0.9447069576866857,0.0,0.0,0.0,-0.0029684901237487793,0.004430580884218216,-0.11424541473388672
354,898000000,imu1_frame,0.009279391185426925,-0.013779014573992002,0.32749247393615877,0.9447077384947007,0.0,0.0,0.0,-0.009163051843643188,-0.04408698529005051,-0.1137552261352539
354,923000000,imu1_frame,0.006829951220008535,-0.01429232080104716,0.3275329711459517,0.9447069567568332,0.0,0.0,0.0,-0.0029670298099517822,0.0044426023960113525,-0.11424541473388672
354,947000000,imu1_frame,0.009180984745782796,-0.013799600552104717,0.3274941404159137,0.9447078217824503,0.0,0.0,0.0,-0.008913576602935791,-0.04213756322860718,-0.11378002166748047
354,972000000,imu1_frame,0.006730481723936874,-0.014313169865985399,0.32753457233761957,0.9447067998631976,0.0,0.0,0.0,-0.0027153491973876953,0.0064133889973163605,-0.11425971984863281
354,997000000,imu1_frame,0.009179750461104757,-0.013799833130877294,0.3274941612442051,0.9447078231590899,0.0,0.0,0.0,-0.00890997052192688,-0.042113274335861206,-0.11378097534179688
355,23000000,imu1_frame,0.0066692269758471204,-0.014489977031206294,0.32753620513930143,0.9447039728402359,0.0,0.0,0.0,-0.005587548017501831,-0.030385147780179977,-0.11417675018310547
355,47000000,imu1_frame,0.004355432519585142,-0.0151259374598861,0.3275729870539631,0.9446947519575153,0.0,0.0,0.0,-0.002517908811569214,0.0164253581315279,-0.11430740356445312
355,72000000,imu1_frame,0.006767195770040548,-0.01446304725603157,0.3275346061064573,0.9447042432042779,0.0,0.0,0.0,-0.0057173073291778564,-0.03236715868115425,-0.114166259765625
355,97000000,imu1_frame,0.008798374794145341,-0.013005711516504882,0.327498905451263,0.9447210736493369,0.0,0.0,0.0,0.008191734552383423,-0.040155380964279175,-0.11433029174804688
355,123000000,imu1_frame,0.006196736900635691,-0.01311237050384098,0.32753769905028485,0.9447267974882468,0.0,0.0,0.0,-0.012285470962524414,-0.03048238717019558,-0.11113262176513672
355,148000000,imu1_frame,0.0036989126192443805,-0.013214688929941983,0.3275728541253734,0.9447262647360223,0.0,0.0,0.0,0.0018147826194763184,0.016308452934026718,-0.11156272888183594
355,172000000,imu1_frame,0.006099668542883982,-0.0131163495427547,0.3275391034589017,0.9447268870544958,0.0,0.0,0.0,-0.011737704277038574,-0.028664013370871544,-0.11115360260009766
355,198000000,imu1_frame,0.007805625142642023,-0.015077747801897749,0.3275163205321324,0.9446929625663825,0.0,0.0,0.0,-0.023710697889328003,-0.008548691868782043,-0.11351490020751953
355,223000000,imu1_frame,0.006163623885041886,-0.013189889245921764,0.32753828931063983,0.9447257303565642,0.0,0.0,0.0,0.021651357412338257,0.009688183665275574,-0.11500740051269531
355,248000000,imu1_frame,0.007805652824888454,-0.015077772219630853,0.32751632013852167,0.9446929620843969,0.0,0.0,0.0,-0.023711293935775757,-0.008549045771360397,-0.11351490020751953
355,272000000,imu1_frame,0.00622932897108253,-0.013265443887459706,0.3275374496614145,0.9447245326169609,0.0,0.0,0.0,0.019835829734802246,0.008958481252193451,-0.11495113372802734
355,298000000,imu1_frame,0.00793505409455746,-0.01522653392132681,0.32751450162122325,0.9446901284596239,0.0,0.0,0.0,-0.027285724878311157,-0.00998632237315178,-0.1133871078491211
355,322000000,imu1_frame,0.006360357475242095,-0.013416099345258028,0.3275357653885666,0.9447221160333187,0.0,0.0,0.0,0.01621568202972412,0.007503241300582886,-0.11484146118164062
355,347000000,imu1_frame,0.008002642261528326,-0.015304229280326362,0.3275135467142517,0.9446886338903527,0.0,0.0,0.0,-0.029152512550354004,-0.010737039148807526,-0.11331939697265625
355,372000000,imu1_frame,0.006322241335995795,-0.01337843073972097,0.3275126645973382,0.9447309148026136,-0.001953125,0.00390625,-0.001953125,0.017155885696411133,0.007958829402923584,-0.11487007141113281
355,397000000,imu1_frame,0.007930814546958499,-0.015221890434143303,0.32746736120986325,0.9447065806770277,-0.001953125,0.00390625,-0.001953125,-0.02717036008834839,-0.009954318404197693,-0.11339187622070312
355,423000000,imu1_frame,0.005301976324735133,-0.014902172594595814,0.32748549948433925,0.9447238019265237,-0.001953125,0.00390625,-0.001953125,-0.03960239887237549,-0.08063989644870162,-0.07129096984863281
355,448000000,imu1_frame,0.0027556461234874187,-0.014852898504191673,0.32735960079572207,0.9447790691941328,-0.009765625,-0.013671875,-0.013671875,-0.022401630878448486,-0.0339726023375988,-0.07172107696533203
355,473000000,imu1_frame,0.000325900245572385,-0.014347582217291804,0.32737365803344465,0.9447859697832887,0.001953125,0.0,-0.001953125,0.002476245164871216,0.0076697468757629395,-0.07215499877929688
355,498000000,imu1_frame,0.002850355489909083,-0.014300657723513284,0.32731589244017484,0.9448024519540302,0.001953125,0.0,-0.001953125,0.02234324812889099,0.07791852951049805,-0.11499404907226562
355,522000000,imu1_frame,0.005212542097100824,-0.014282351959796366,0.32708034970011857,0.9448742184372639,-0.00390625,0.0,-0.017578125,0.007571786642074585,0.03410299587994814,-0.11463165283203125
355,547000000,imu1_frame,0.007737520902996095,-0.013912725733459655,0.3268138146043067,0.9449546536298571,0.009765625,0.0234375,-0.01953125,-0.0017263293266296387,-0.014980204403400421,-0.11419677734375
355,572000000,imu1_frame,0.005514526239915481,-0.01507044815387449,0.326804461132248,0.9449557215959125,0.0,-0.00390625,-0.00390625,-0.008909046649932861,0.0334740960970521,-0.11411666870117188
355,598000000,imu1_frame,0.00435654017487843,-0.012795664642145302,0.32677332259432373,0.945006077845395,0.0,-0.00390625,-0.00390625,0.005339890718460083,0.0012573613785207272,-0.11167240142822266
355,622000000,imu1_frame,0.006713452168052318,-0.01229621103138906,0.3266962613311073,0.9450255475840511,0.0,-0.00390625,-0.00390625,-0.0004833042621612549,0.03263373300433159,-0.11140727996826172
355,647000000,imu1_frame,0.009143800839039411,-0.011842615075504779,0.32670473556149426,0.9450080206728847,-0.00390625,-0.013671875,0.00390625,-0.00762176513671875,-0.015152573585510254,-0.11086845397949219
355,673000000,imu1_frame,0.006553576726633545,-0.012012266256691299,0.3267875606547305,0.9449987546514531,-0.001953125,-0.0078125,0.00390625,0.005777418613433838,0.033798638731241226,-0.11158466339111328
355,697000000,imu1_frame,0.006169394402864633,-0.014479251510390862,0.32684060771757256,0.9449484149916378,-0.001953125,-0.0078125,0.00390625,-0.03733077645301819,0.017612392082810402,-0.11040210723876953
355,723000000,imu1_frame,0.007856383528500457,-0.012595630194450038,0.32685801632329403,0.9449568585406738,-0.001953125,-0.0078125,0.00390625,-0.013321101665496826,0.013483285903930664,-0.11093616485595703
355,748000000,imu1_frame,0.009251115351276373,-0.01091313606793838,0.32689402207577645,0.9449527071007532,-0.013671875,-0.025390625,0.005859375,0.008839935064315796,-0.02302035689353943,-0.11124324798583984
355,772000000,imu1_frame,0.007608754402473136,-0.01305919678980333,0.32696314329574716,0.9449162222979415,-0.01171875,-0.029296875,0.00390625,-0.020306706428527832,0.021052006632089615,-0.11077880859375
355,798000000,imu1_frame,0.007687719896044902,-0.0160658921060544,0.3270108707754514,0.9448527273963481,-0.01171875,-0.029296875,0.00390625,-0.002114713191986084,-0.00022808462381362915,-0.10904312133789062
355,823000000,imu1_frame,0.008820157259835475,-0.01819733596891849,0.32697392167002864,0.9448169750471611,0.005859375,0.0078125,-0.001953125,-0.04870033264160156,-0.007525775581598282,-0.10725021362304688
355,847000000,imu1_frame,0.00767528337344583,-0.016035882017549654,0.3270131326228329,0.9448525554843242,0.0,0.00390625,0.001953125,-0.0014816522598266602,-0.00018953531980514526,-0.10906600952148438
355,873000000,imu1_frame,0.008815736867680233,-0.01826778993548991,0.32695140601799877,0.9448234484480189,0.005859375,0.0078125,-0.00390625,-0.04997166991233826,-0.007003013044595718,-0.10720157623291016
355,897000000,imu1_frame,0.00789600464125109,-0.015952943426352152,0.32692228681726515,0.9448835775315977,0.005859375,0.0078125,-0.00390625,-0.04041889309883118,-0.00482935830950737,-0.11295700073242188
355,923000000,imu1_frame,0.00682674335550562,-0.013485284332384273,0.3268902941899262,0.9449414152454405,0.0078125,0.0078125,-0.00390625,0.011980414390563965,-0.0008657984435558319,-0.1146841049194336
355,948000000,imu1_frame,0.007611098740519915,-0.015649883830657674,0.326839494261428,0.9449196247845544,0.0078125,0.015625,-0.00390625,-0.03299906849861145,-0.0015345178544521332,-0.11323070526123047
355,973000000,imu1_frame,0.006724806229621683,-0.013365594250456459,0.32682582663449805,0.9449661459100972,0.0,-0.00390625,-0.001953125,0.01484459638595581,0.00023218989372253418,-0.11477470397949219
355,997000000,imu1_frame,0.0060453951620272365,-0.011110015578007853,0.32680819384406595,0.9450060450534542,0.0,-0.00390625,-0.001953125,0.02568592131137848,-0.0016364753246307373,-0.11211681365966797
356,22000000,imu1_frame,0.004604887149495415,-0.01318762544493533,0.3268061892769727,0.9449881460630755,0.0,-0.00390625,-0.001953125,-0.0034849047660827637,-0.0008164035389199853,-0.11143016815185547
356,48000000,imu1_frame,0.0019715940404155747,-0.01300616783086767,0.326863801920007,0.94497989788656,-0.005859375,-0.005859375,0.001953125,0.016688495874404907,0.04668114334344864,-0.1118612289428711
356,72000000,imu1_frame,0.004367259287296734,-0.013243527995198595,0.3268310384883391,0.9449798983540294,-0.001953125,-0.005859375,0.0,-0.002999603748321533,0.003937257453799248,-0.11144256591796875
356,97000000,imu1_frame,0.00673576856081592,-0.012507967581109513,0.32679653686618243,0.9449879383680804,-0.001953125,-0.005859375,0.0,-0.004541516304016113,-0.0054592713713645935,-0.1112985610961914
356,122000000,imu1_frame,0.005360452990910086,-0.01467446214835593,0.32681872087711894,0.9449579087920438,-0.001953125,-0.005859375,0.0,-0.0006125569343566895,-0.005268222652375698,-0.1143789291381836
356,147000000,imu1_frame,0.003709397429174708,-0.016626674531398676,0.3267970864684488,0.9449409814059673,-0.001953125,-0.005859375,-0.00390625,-0.026117652654647827,0.03769446909427643,-0.11347770690917969
356,172000000,imu1_frame,0.0053359922430075415,-0.014757224837059478,0.32674926638238555,0.944980776746524,0.0,-0.00390625,-0.001953125,-0.001984506845474243,-0.004310099873691797,-0.11433696746826172
356,197000000,imu1_frame,0.007166035762213429,-0.0130772911662707,0.32669608231449826,0.9450118000255688,0.0,-0.00390625,-0.001953125,-0.01779848337173462,0.02926318719983101,-0.11089706420898438
356,223000000,imu1_frame,0.008987881726216992,-0.011186577583582841,0.3266157024618088,0.9450482852052701,0.0,0.00390625,-0.00390625,0.005499213933944702,-0.016488514840602875,-0.11121845245361328
356,248000000,imu1_frame,0.007177335443985835,-0.012882116651897957,0.32660167864998935,0.9450470255122233,0.0,0.00390625,-0.00390625,0.020895332098007202,-0.050345636904239655,-0.114898681640625
356,273000000,imu1_frame,0.005392945136236448,-0.014605547805644386,0.326608196097153,0.9450315763815609,0.0,0.00390625,-0.001953125,0.0004539787769317627,-0.0063765039667487144,-0.1144113540649414
356,297000000,imu1_frame,0.0038842892935713916,-0.016438778264061225,0.3266092459632023,0.945008507536952,0.0,0.00390625,-0.001953125,-0.023771733045578003,0.033198315650224686,-0.11357307434082031
356,323000000,imu1_frame,0.004393605280822158,-0.01384469853027081,0.326579797677761,0.9450580174274988,0.0,0.00390625,-0.001953125,-0.014272242784500122,0.007216553203761578,-0.11111927032470703
356,348000000,imu1_frame,0.004966915748697852,-0.011500346418863583,0.3266162354412428,0.9450740217180781,-0.00390625,-0.005859375,0.00390625,0.025368481874465942,-0.01833334192633629,-0.11217594146728516
356,373000000,imu1_frame,0.004374642544525957,-0.014008499673550443,0.3266472641191107,0.94503237472745,-0.001953125,-0.005859375,0.001953125,-0.017175644636154175,0.008633178658783436,-0.11103439331054688
356,398000000,imu1_frame,0.00605085707152939,-0.015943150675696235,0.32664319746722864,0.9449938754423846,-0.001953125,-0.005859375,0.001953125,-0.028447717428207397,-0.009974921122193336,-0.07440376281738281
356,423000000,imu1_frame,0.004862060824084967,-0.013823402220127482,0.3266836252149092,0.9450201494846807,-0.001953125,-0.005859375,0.001953125,-0.016868889331817627,-0.0015416217502206564,-0.11104679107666016
356,448000000,imu1_frame,0.003771332677714761,-0.011595692486306146,0.3267208170751127,0.9450422343236136,-0.001953125,-0.001953125,0.001953125,0.031239718198776245,0.004388056229799986,-0.11233711242675781
356,472000000,imu1_frame,0.004882089899867871,-0.01373341396654955,0.32670692607072155,0.9450133030790907,0.00390625,0.0,0.0,-0.015334725379943848,-0.0024793408811092377,-0.11109161376953125
356,498000000,imu1_frame,0.0036443715454339168,-0.011454031603066203,0.32672497804818124,0.9450430214733562,0.00390625,0.0,0.0,0.034666985273361206,0.0058295647613704205,-0.07335758209228516
356,522000000,imu1_frame,0.0047671663876882936,-0.01362215678592179,0.32673150354350317,0.9450070029165569,-0.001953125,-0.00390625,0.001953125,-0.012546181678771973,-0.001059811213053763,-0.07211017608642578
356,548000000,imu1_frame,0.00726871526071754,-0.014360592867282525,0.3267176158511386,0.9449849409612338,-0.001953125,-0.00390625,0.001953125,-0.006998896598815918,-0.003491021692752838,-0.11408615112304688
356,572000000,imu1_frame,0.0051370160670114375,-0.013149389683025724,0.32672533816570287,0.9450138930287736,-0.001953125,0.00390625,-0.001953125,0.02897968888282776,0.02814907394349575,-0.11525535583496094
356,597000000,imu1_frame,0.007342448718410879,-0.014325059430315827,0.32667214803158523,0.9450006290048517,0.00390625,0.00390625,-0.001953125,-0.006811320781707764,-0.0050949230790138245,-0.11408519744873047
356,623000000,imu1_frame,0.006238845708592438,-0.011920645142197435,0.3266609194493686,0.9450458289036101,0.00390625,0.00390625,-0.001953125,0.009484678506851196,-7.065758109092712e-05,-0.11170482635498047
356,648000000,imu1_frame,0.007141418720720674,-0.014303558922778717,0.32669856840310096,0.9449933617460823,0.0,-0.00390625,0.00390625,-0.040288329124450684,-0.001510370522737503,-0.11024761199951172
356,672000000,imu1_frame,0.006285588475340779,-0.012037785966838325,0.3267065658106658,0.9450282551028494,0.0,0.001953125,0.0,0.007020801305770874,-0.00017325952649116516,-0.11163902282714844
356,697000000,imu1_frame,0.007159495461839518,-0.01435665828529667,0.32669857190745144,0.9449924185416742,0.0,0.001953125,0.0,-0.041384339332580566,-0.001505047082901001,-0.1102132797241211
356,722000000,imu1_frame,0.006270198974641451,-0.011995535709686181,0.32670687463356607,0.9450287878128493,0.0,0.001953125,0.0,0.007899343967437744,-0.00015878677368164062,-0.1116628646850586
356,748000000,imu1_frame,0.007184682381171075,-0.014431373194935416,0.32672240306610706,0.9449828501838,0.0,0.0,0.001953125,-0.04292592406272888,-0.0014850907027721405,-0.11016368865966797
356,773000000,imu1_frame,0.00492558977382555,-0.013357834410011649,0.3267783396073985,0.9449937690740011,0.0,0.0,0.001953125,-0.008676618337631226,-0.0056608752347528934,-0.1112823486328125
356,798000000,imu1_frame,0.002669261365793816,-0.012281685244990119,0.3268321938025436,0.9449988107640773,0.0,0.0,0.001953125,0.025610461831092834,0.02915656380355358,-0.11215686798095703
356,823000000,imu1_frame,0.00492218876742446,-0.013413147448363052,0.32677784391774395,0.9449931747148953,-0.001953125,-0.00390625,-0.001953125,-0.00967627763748169,-0.00524479616433382,-0.11125373840332031
356,848000000,imu1_frame,0.005281164571672871,-0.01594081696275971,0.32674857953530156,0.9449620973494065,-0.001953125,-0.00390625,-0.001953125,-0.02349114418029785,0.004264004994183779,-0.07457542419433594
356,873000000,imu1_frame,0.004908078083068771,-0.013422840989508142,0.32675354030448633,0.9450015142886202,-0.001953125,0.00390625,0.0,0.025390982627868652,-0.004929410293698311,-0.0760946273803711
356,898000000,imu1_frame,0.005277119828196762,-0.015900520772230295,0.32670107598495934,0.944979223261422,-0.001953125,0.0,-0.00390625,-0.02272137999534607,0.004064792767167091,-0.0746011734008789
356,923000000,imu1_frame,0.007089912047951765,-0.014210473155526978,0.32662314714806995,0.9450212248129344,-0.001953125,0.0,-0.00390625,-0.0030811429023742676,-0.0011782161891460419,-0.11422061920166016
356,947000000,imu1_frame,0.005691237537198137,-0.01614575095871878,0.3266261766868454,0.9449985530381557,0.0,0.001953125,-0.001953125,-0.0298936665058136,0.037018134724348783,-0.11342144012451172
356,973000000,imu1_frame,0.007215335410122691,-0.014037704528820586,0.3265747667496119,0.9450395777473647,0.0,0.0,-0.001953125,-0.0006886422634124756,-0.004614017903804779,-0.11428070068359375
356,997000000,imu1_frame,0.00580459269058668,-0.01598269237181577,0.3265780725187312,0.9450172605821519,0.0,0.0,-0.001953125,-0.02760574221611023,0.03386601805686951,-0.11349868774414062
357,22000000,imu1_frame,0.0045079710136983085,-0.013846834519791207,0.326575466022799,0.9450589443855408,0.0,0.0,-0.001953125,0.020114630460739136,0.005116237793117762,-0.1150045394897461
357,48000000,imu1_frame,0.005838554250671835,-0.016020991229598592,0.32657842386736347,0.9450162814410088,0.0,0.00390625,0.001953125,-0.028529703617095947,-0.005579115357249975,-0.11346721649169922
357,72000000,imu1_frame,0.007188280656569443,-0.013999063788824784,0.32657603460031803,0.9450399189764265,0.0,0.00390625,0.001953125,0.00019749999046325684,-0.004360619932413101,-0.11430931091308594
357,97000000,imu1_frame,0.006046104841044433,-0.01618815114192443,0.3266209692078192,0.9449974237280239,0.0,0.00390625,0.001953125,-0.0329415500164032,0.030732213519513607,-0.11331367492675781
357,123000000,imu1_frame,0.007262509323670422,-0.013826151104349363,0.32657467366644755,0.9450423673167337,0.001953125,0.00390625,-0.001953125,0.002917379140853882,-0.006836362183094025,-0.11438179016113281
357,148000000,imu1_frame,0.004834785573257715,-0.013193663782857308,0.32658751011293274,0.9450625113306954,0.001953125,0.00390625,-0.001953125,-0.0050637125968933105,-0.005087906960397959,-0.11138439178466797
357,173000000,imu1_frame,0.0023791634816493026,-0.013088547886972533,0.3266453640940712,0.9450533506692569,0.00390625,0.0,0.001953125,0.012554138898849487,0.039619699120521545,-0.1117849349975586
357,198000000,imu1_frame,0.004888118861274049,-0.013220874988885661,0.3266342364512087,0.94504570806732,0.0,-0.001953125,0.001953125,-0.005906939506530762,-0.00588575191795826,-0.11136054992675781
357,223000000,imu1_frame,0.00241015633913253,-0.012963693329520609,0.3266911230767512,0.9450391758570277,0.0,-0.001953125,0.001953125,0.014664143323898315,0.03826221823692322,-0.1118459701538086
357,248000000,imu1_frame,0.004893512926281379,-0.013272750974611306,0.3266797564375014,0.9450292187793672,-0.001953125,-0.00390625,0.001953125,-0.006899654865264893,-0.005640791729092598,-0.11133193969726562
357,273000000,imu1_frame,0.0024749662543333334,-0.012628897320449185,0.32668968822865024,0.9450440376509324,0.0,0.0,-0.001953125,0.02043376863002777,0.03492644801735878,-0.11200618743896484
357,297000000,imu1_frame,0.0043189150650189585,-0.014168434492967393,0.32664034706747197,0.9450326375868301,0.0,0.0,-0.001953125,0.015382528305053711,0.010681863874197006,-0.07579898834228516
357,323000000,imu1_frame,0.006266066988607931,-0.01589504754034107,0.3265854834819164,0.9450132305142968,0.0,0.0,-0.001953125,-0.028932243585586548,-0.014277714304625988,-0.11344432830810547
357,347000000,imu1_frame,0.004455583483224034,-0.014333334139104868,0.3266135290684311,0.9450387854145171,-0.001953125,-0.001953125,0.0,0.011464148759841919,0.009202046319842339,-0.11474609375
357,372000000,imu1_frame,0.0064090898366656116,-0.01591824261589318,0.3266061959956831,0.9450047226637104,0.001953125,0.0,0.001953125,-0.030273646116256714,-0.016764096915721893,-0.11339378356933594
357,397000000,imu1_frame,0.004484460726707843,-0.014344590141021607,0.3266606834111622,0.9450221797709455,0.001953125,0.0,0.001953125,0.011072397232055664,0.008755152113735676,-0.11473464965820312
357,423000000,imu1_frame,0.006482888003956543,-0.016045106471844144,0.32662879306225256,0.9449942636144051,0.0,-0.001953125,0.0,-0.03308787941932678,-0.01730896346271038,-0.1132965087890625
357,447000000,imu1_frame,0.007228203840691226,-0.013783859522004536,0.32661294164048427,0.9450300231415215,0.0,-0.001953125,0.0,0.003915548324584961,-0.006460558623075485,-0.11441516876220703
357,473000000,imu1_frame,0.0063189153056415065,-0.016273719845318287,0.3266299993412574,0.9449910480433592,-0.00390625,-0.001953125,0.0,-0.036262959241867065,0.026242820546030998,-0.11319351196289062
357,497000000,imu1_frame,0.0071406167947361595,-0.014070365022053463,0.32663462523592585,0.9450189723052776,-0.001953125,-0.00390625,0.001953125,-0.0008177757263183594,-0.00300593301653862,-0.11428356170654297
357,523000000,imu1_frame,0.006098904532453231,-0.016511428122734505,0.32667804446456206,0.94497176220756,-0.001953125,-0.00390625,0.001953125,-0.03924882411956787,0.0318423300050199,-0.11309432983398438
357,548000000,imu1_frame,0.007040910764603982,-0.014251388061373424,0.32665800825291874,0.9450089254383607,-0.00390625,-0.001953125,0.0,-0.0035255253314971924,-4.3958425521850586e-07,-0.1142110824584961
357,573000000,imu1_frame,0.009505870171862269,-0.013810857401441739,0.3265940680727321,0.945015985764165,0.0,-0.001953125,-0.001953125,-0.011117219924926758,-0.04836522042751312,-0.11365509033203125
357,597000000,imu1_frame,0.007184056855551367,-0.014419906315375632,0.3266110322314396,0.9450215284604185,0.0,-0.001953125,-0.001953125,-0.007549405097961426,-0.040646135807037354,-0.11407661437988281
357,623000000,imu1_frame,0.005704784810697385,-0.012311471016774603,0.3266051079526877,0.9450634828258259,0.0,-0.001953125,-0.001953125,0.04083332419395447,0.012275176122784615,-0.11555099487304688
357,647000000,imu1_frame,0.007083275853851443,-0.014276026539106961,0.3265882489509423,0.9450323475503841,0.0,0.0,0.0,-0.004247814416885376,-0.0006483644247055054,-0.11418628692626953
357,673000000,imu1_frame,0.005588943625862633,-0.012146724143578569,0.3266064399184654,0.9450658464919324,0.0,0.0,0.0,0.04461550712585449,0.013363409787416458,-0.11565494537353516
357,698000000,imu1_frame,0.005171417151043679,-0.014613617426640404,0.3266142172353368,0.9450306088852921,0.0,0.0,0.0,0.0017189383506774902,-0.00223096483387053,-0.07539081573486328
357,723000000,imu1_frame,0.004754514873215724,-0.01707713502079536,0.32661994173992626,0.944989513013562,0.0,0.0,0.0,-0.04111394286155701,0.021204089745879173,-0.0739450454711914
357,748000000,imu1_frame,0.006337043974175744,-0.015137534612033649,0.3265930176823911,0.9450225911165555,0.0,0.0,0.0,-0.015396207571029663,0.01863890327513218,-0.11388587951660156
357,773000000,imu1_frame,0.007934972679488228,-0.013322511848772584,0.32658606199814894,0.9450402589282408,-0.001953125,-0.009765625,0.001953125,0.007927149534225464,-0.022470422089099884,-0.11445045471191406
357,798000000,imu1_frame,0.00618304726493509,-0.015180495737908637,0.32656977165359496,0.945030955428334,-0.00390625,-0.001953125,-0.00390625,-0.01520627737045288,0.02174997515976429,-0.11389923095703125
357,822000000,imu1_frame,0.007793762106809039,-0.013471699181438443,0.3264952118041723,0.9450707101917486,-0.00390625,-0.001953125,-0.00390625,0.006078541278839111,-0.018938057124614716,-0.11441516876220703
357,848000000,imu1_frame,0.006047886151404554,-0.015325864453083116,0.3265039522550986,0.94505222613021,0.00390625,0.001953125,-0.001953125,-0.017027437686920166,0.02515249513089657,-0.11384391784667969
357,873000000,imu1_frame,0.007799990620156604,-0.013465328822509764,0.3264512012550371,0.945085952845121,0.00390625,0.001953125,-0.001953125,0.006159156560897827,-0.019107677042484283,-0.11441707611083984
357,897000000,imu1_frame,0.0057291610001165725,-0.014575912729205,0.32646457955307734,0.9450796780058165,0.00390625,0.001953125,-0.001953125,-0.0011428296566009521,-0.012822830118238926,-0.11435508728027344
357,923000000,imu1_frame,0.008296788889018955,-0.013913990842789223,0.3264003578612122,0.945092784091081,0.00390625,0.001953125,-0.001953125,-0.005293011665344238,-0.02543732523918152,-0.11402034759521484
357,948000000,imu1_frame,0.005868402340495832,-0.014520960924317917,0.3263940267986562,0.9451040380920837,0.0,0.00390625,-0.00390625,-0.0010150372982025146,0.023293880745768547,-0.11435508728027344
357,972000000,imu1_frame,0.008185700697331823,-0.01392050607692936,0.32633431872855756,0.945116461730841,0.0,0.005859375,-0.001953125,-0.004700452089309692,-0.02336527779698372,-0.11405277252197266
357,998000000,imu1_frame,0.005664194888425244,-0.014577321880426014,0.32635169773652983,0.9451190337558255,0.0,0.005859375,-0.001953125,-0.0007529258728027344,0.027412302792072296,-0.11436939239501953
358,23000000,imu1_frame,0.00810803621928513,-0.014105394546349402,0.32635751402587493,0.945106380590148,-0.001953125,-0.0078125,0.00390625,-0.007621645927429199,-0.020743105560541153,-0.11397552490234375
358,47000000,imu1_frame,0.005712535150453036,-0.014461514450971472,0.3263729407896847,0.9451131863762309,-0.001953125,-0.001953125,-0.001953125,0.0010773539543151855,0.025787140242755413,-0.1144247055053711
358,72000000,imu1_frame,0.008154183415425746,-0.014134126198126947,0.3263322976481831,0.9451142614949266,-0.00390625,-0.00390625,0.0,-0.008445054292678833,-0.02142057567834854,-0.11394500732421875
358,98000000,imu1_frame,0.005617951645973667,-0.014894247643388455,0.32637231022030944,0.9451072505953487,-0.00390625,-0.00390625,0.0,-0.0063118040561676025,-0.00876684207469225,-0.14935302734375
358,123000000,imu1_frame,0.0030876977610920842,-0.015036167695935045,0.3264100821568432,0.9451036123356628,-0.00390625,-0.00390625,0.0,0.0072071850299835205,0.038894206285476685,-0.11454391479492188
358,148000000,imu1_frame,0.005586649518714485,-0.014882209442737212,0.3263482570789418,0.945115931667007,0.0,0.0,-0.001953125,-0.005889624357223511,-0.008273295126855373,-0.11421012878417969
358,172000000,imu1_frame,0.0031885228869558487,-0.01503066768334561,0.32636334413147816,0.9451195056489474,0.0,0.0,-0.001953125,0.00666382908821106,0.0369817316532135,-0.11453533172607422
358,198000000,imu1_frame,0.005336823994559155,-0.016493366593262688,0.3263027213995056,0.9451063544254414,0.0,0.0,-0.001953125,0.005009472370147705,0.006606230046600103,-0.10937023162841797
358,223000000,imu1_frame,0.007403110156903683,-0.01790352649589439,0.32624233909002803,0.9450876117504041,0.0,0.0,-0.001953125,-0.0342060923576355,-0.022590629756450653,-0.10790729522705078
358,247000000,imu1_frame,0.005399104925369484,-0.016559731286350837,0.3262998849470254,0.9451058194981589,-0.001953125,0.0,0.001953125,0.0033864080905914307,0.005878088995814323,-0.10931396484375
358,273000000,imu1_frame,0.007618978279024992,-0.017902994087712225,0.3262845261473479,0.9450713422644238,0.001953125,0.001953125,0.001953125,-0.035573363304138184,-0.02656473033130169,-0.10784435272216797
358,298000000,imu1_frame,0.006043312521810042,-0.01594566064724257,0.326335447389197,0.945100201067368,0.001953125,0.001953125,0.001953125,-0.02844300866127014,-0.009928040206432343,-0.11346626281738281
358,323000000,imu1_frame,0.004346855003852715,-0.014099513581672659,0.32636001960286165,0.94513038580566,-0.005859375,-0.001953125,0.0,0.0164739191532135,0.009640135802328587,-0.11489486694335938
358,348000000,imu1_frame,0.006106823662329182,-0.015877350891349073,0.3262860289794119,0.9451180051857422,0.0,0.0,-0.00390625,-0.027585506439208984,-0.011554536409676075,-0.1134939193725586
358,373000000,imu1_frame,0.007369646567253142,-0.013718664027576133,0.3262161210263808,0.9451669317899744,0.0,0.0,-0.00390625,0.004237323999404907,-0.009615745395421982,-0.1144094467163086
358,398000000,imu1_frame,0.005166844869553887,-0.01489912725236248,0.3262057694578961,0.9451672421818236,0.0,0.0,-0.00390625,-0.003524690866470337,-0.00045644768397323787,-0.1142892837524414
358,423000000,imu1_frame,0.0029418869307400665,-0.016100258808117322,0.3262621859628519,0.9451376158942887,-0.001953125,-0.001953125,0.001953125,-0.011522740125656128,0.04832874983549118,-0.11391448974609375
358,447000000,imu1_frame,0.0050471030522756515,-0.015012013846067089,0.3262072515058715,0.9451655914473667,-0.001953125,-0.00390625,-0.001953125,-0.004846483469009399,0.0024762265384197235,-0.11424732208251953
358,472000000,imu1_frame,0.007381807693532548,-0.014178963393552659,0.32614558515906344,0.9451843858176625,-0.001953125,-0.00390625,-0.001953125,-0.004338949918746948,-0.006927337497472763,-0.11415576934814453
358,498000000,imu1_frame,0.0049024170682148835,-0.015043615054591147,0.3261607248202629,0.9451819071150797,-0.001953125,-0.00390625,-0.001953125,-0.0045080482959747314,0.005335607100278139,-0.1142568588256836
358,523000000,imu1_frame,0.007090400942825088,-0.013893710082786854,0.3261016481778439,0.9452060125127745,-0.001953125,-0.00390625,-0.001953125,0.0027892589569091797,-0.04243937507271767,-0.1143941879272461
358,548000000,imu1_frame,0.004848776100125563,-0.014983601003551708,0.32606871987799857,0.9452148808543063,0.0,0.005859375,-0.005859375,-0.003058195114135742,0.00591395515948534,-0.11430168151855469
358,572000000,imu1_frame,0.00715743891330972,-0.014342768809053892,0.3259651359383955,0.9452458866367818,0.0,0.005859375,-0.005859375,-0.005926966667175293,-0.04085934907197952,-0.11412811279296875
358,597000000,imu1_frame,0.005929546804291554,-0.016465946362836527,0.3259191897100448,0.9452356292818311,0.0,0.005859375,-0.005859375,0.0017383098602294922,-0.004657132551074028,-0.10925674438476562
358,623000000,imu1_frame,0.0050357225388287935,-0.018890029460883355,0.32595915354344557,0.9451816960281866,0.001953125,0.0,0.001953125,-0.037340253591537476,0.027321165427565575,-0.1077728271484375
358,648000000,imu1_frame,0.005883673270027742,-0.016572520933918245,0.3259440271484042,0.9452254890263099,-0.001953125,-0.001953125,0.0,6.157159805297852e-05,-0.0031213650945574045,-0.10919857025146484
358,673000000,imu1_frame,0.004848255262940298,-0.014318535030759092,0.3259600555408797,0.9452626704611078,-0.001953125,-0.001953125,0.0,0.009229779243469238,0.0016496942844241858,-0.11468315124511719
358,698000000,imu1_frame,0.0059427641253583735,-0.016589610807936764,0.32594158618998764,0.9452256612892747,-0.001953125,-0.001953125,0.0,-0.03969261050224304,-0.004105078987777233,-0.11308002471923828
358,723000000,imu1_frame,0.004857992565191512,-0.014386522658760503,0.3259814960156885,0.9452541944521586,-0.001953125,-0.00390625,0.001953125,0.007911890745162964,0.001909806625917554,-0.11464309692382812
358,747000000,imu1_frame,0.005994344657966735,-0.016548053732847963,0.3259402436489011,0.9452265269869816,-0.001953125,-0.00390625,-0.001953125,-0.039253562688827515,-0.005323414690792561,-0.11309528350830078
358,773000000,imu1_frame,0.00478537324408134,-0.01429648807650185,0.32593497857504433,0.9452719716424891,-0.001953125,-0.00390625,-0.001953125,0.010037600994110107,0.002663237042725086,-0.11470699310302734
358,797000000,imu1_frame,0.005982051524327062,-0.01642626944147284,0.3258928684324002,0.9452450640107563,-0.001953125,-0.00390625,-0.001953125,-0.03692540526390076,-0.005889569409191608,-0.11317634582519531
358,823000000,imu1_frame,0.004712298126160441,-0.014208019582108586,0.32588846888730655,0.9452897081171525,-0.001953125,-0.00390625,-0.001953125,0.012137234210968018,0.003435271792113781,-0.11476993560791016
358,848000000,imu1_frame,0.006011854950486441,-0.016342643695650028,0.3258676214813196,0.9452550284802502,0.0,0.0,0.0,-0.0355704128742218,-0.006982196122407913,-0.11322212219238281
358,872000000,imu1_frame,0.005017647715040283,-0.018529755852499982,0.3258847733574912,0.9452145713292781,0.0,0.0,0.0,-0.030573487281799316,0.025329407304525375,-0.10803985595703125
358,898000000,imu1_frame,0.005106261407664801,-0.01592882319206585,0.3258853430369428,0.9452613087817817,0.0,0.0,0.0,-0.022159814834594727,0.007119449321180582,-0.11368083953857422
358,922000000,imu1_frame,0.005187993555355208,-0.013528648677190648,0.3258839101818097,0.945298755670636,0.0,0.0,0.0,0.021658241748809814,-0.009684340097010136,-0.11504650115966797
358,947000000,imu1_frame,0.005102839745027378,-0.016029293002203494,0.32588536201775115,0.9452596223339625,0.0,0.0,0.0,-0.02399367094039917,0.007822830229997635,-0.11361885070800781
358,972000000,imu1_frame,0.0076001051672823505,-0.01615141959199515,0.32584229107691476,0.9452556116693286,0.0,0.0,0.0,-0.00308796763420105,0.0015079900622367859,-0.10901546478271484
358,998000000,imu1_frame,0.0052764138225888145,-0.014980273761518509,0.32588018042289907,0.9452776623102555,0.0,0.0,0.0,-0.005721420049667358,-0.0020700842142105103,-0.11421871185302734
359,22000000,imu1_frame,0.003133636335543357,-0.013900132548285071,0.3259131632002929,0.9452923234064878,0.0,0.0,0.0,0.027880460023880005,0.03065062128007412,-0.11518192291259766
359,47000000,imu1_frame,0.005368118473577875,-0.01502650018335212,0.3258787269607048,0.9452769133490797,0.0,0.0,0.0,-0.007159173488616943,-0.0034704343415796757,-0.11417293548583984
359,72000000,imu1_frame,0.003133760707845229,-0.013900260361662505,0.3259131613743436,0.9452923217442767,0.0,0.0,0.0,0.02787730097770691,0.030649136751890182,-0.11518192291259766
359,97000000,imu1_frame,0.005368273872841067,-0.01502657098490421,0.3258787245059542,0.9452769121873411,0.0,0.0,0.0,-0.007161438465118408,-0.0034728546161204576,-0.11417293548583984
359,123000000,imu1_frame,0.0030444648704291708,-0.013855332055336915,0.3259144951638793,0.9452928132855781,0.0,0.0,0.0,0.02927619218826294,0.03201322630047798,-0.11521625518798828
359,148000000,imu1_frame,0.005277585898338333,-0.01498085707214326,0.32588016189300406,0.9452776529110688,0.0,0.0,0.0,-0.005739450454711914,-0.0020880126394331455,-0.11421871185302734
359,172000000,imu1_frame,0.0031348327024745383,-0.01390098949716167,0.325913145437987,0.9452923129623159,0.0,0.0,0.0,0.02785700559616089,0.03063395619392395,-0.11518096923828125
359,198000000,imu1_frame,0.005458827665758319,-0.015072183156041937,0.32587728594005033,0.9452761633532144,0.0,0.0,0.0,-0.008580684661865234,-0.0048558516427874565,-0.11412715911865234
359,223000000,imu1_frame,0.0032246271069383643,-0.013946297740570832,0.3259118009411164,0.9452918070980362,0.0,0.0,0.0,0.026447951793670654,0.029263075441122055,-0.11514472961425781
359,247000000,imu1_frame,0.005370777026185824,-0.015027803313277209,0.3258786848354899,0.9452768920541768,0.0,0.0,0.0,-0.007200121879577637,-0.0035112686455249786,-0.11417198181152344
359,273000000,imu1_frame,0.0030463623009346183,-0.013856564083353158,0.3259144670041233,0.945292798822647,0.0,0.0,0.0,0.02924126386642456,0.03198600560426712,-0.11521530151367188
359,298000000,imu1_frame,0.005279632269950281,-0.014981867654388362,0.325880129549286,0.9452776366177403,0.0,0.0,0.0,-0.005771160125732422,-0.0021194033324718475,-0.11421775817871094
359,323000000,imu1_frame,0.0030475915989422514,-0.013857329823066714,0.3259144487327978,0.9452927899348527,0.0,0.0,0.0,0.029219329357147217,0.031968168914318085,-0.11521434783935547
359,347000000,imu1_frame,0.005191614417085343,-0.014937515397568789,0.3258815214773634,0.9452783461674613,0.0,0.0,0.0,-0.004391342401504517,-0.0007752495585009456,-0.11426162719726562
359,373000000,imu1_frame,0.0035223728082336508,-0.012940498975495464,0.3259067384956531,0.9453067936808617,0.0,0.0,0.0,0.043132662773132324,0.017351482063531876,-0.07657146453857422
359,398000000,imu1_frame,0.005125100092018926,-0.014857937904770031,0.32588256855936965,0.9452796023079164,0.0,0.0,0.0,-0.0024976134300231934,-5.297229654388502e-05,-0.07525920867919922
359,423000000,imu1_frame,0.005937457061464118,-0.01722437269234427,0.32586878501257305,0.9452394419105817,0.0,0.0,0.0,-0.012320637702941895,1.1087649909313768e-05,-0.10875606536865234
359,447000000,imu1_frame,0.005157901016753974,-0.014953475000677594,0.3258820515499218,0.9452780956523427,0.0,0.0,0.0,0.034590840339660645,-5.046067963121459e-05,-0.1103525161743164
359,473000000,imu1_frame,0.0041704057100384025,-0.012547766507528757,0.32589656512173265,0.9453129588203806,0.0,0.0,0.0,0.0462605357170105,0.0028721762355417013,-0.11573219299316406
359,498000000,imu1_frame,0.005061263629830413,-0.014884988443814279,0.3258834219914571,0.945279226472599,0.0,0.0,0.0,0.036471664905548096,0.0012991729890927672,-0.11041259765625
359,522000000,imu1_frame,0.005916725280415597,-0.017129338759885877,0.32586888123029617,0.9452412656889881,0.0,0.0,0.0,-0.01043325662612915,-0.00021139599266462028,-0.10882377624511719
359,548000000,imu1_frame,0.004990594091074427,-0.014699588346064925,0.32588453909483334,0.9452821183392938,0.0,0.0,0.0,0.040346354246139526,0.0014239958254620433,-0.1105337142944336
359,572000000,imu1_frame,0.006378180422108751,-0.016660610659584175,0.32586191260092284,0.9452490448463946,0.0,0.0,0.0,-0.043776243925094604,-0.01172652281820774,-0.1129293441772461
359,598000000,imu1_frame,0.004874846325065644,-0.014536012740306149,0.3258863415046583,0.9452846304831313,0.0,0.0,0.0,0.005042821168899536,0.0025210154708474874,-0.11455535888671875
359,622000000,imu1_frame,0.006262289113651276,-0.01649679433872452,0.32586387440837045,0.9452520165898451,0.0,0.0,0.0,-0.04001244902610779,-0.010628416202962399,-0.11306381225585938
359,648000000,imu1_frame,0.004761417917592175,-0.014375720109516604,0.3258880950998333,0.9452870553662251,0.0,0.0,0.0,0.008726328611373901,0.0035960793029516935,-0.11466789245605469
359,672000000,imu1_frame,0.004333940628734778,-0.012014647070293705,0.32589406489326367,0.9453200112563723,0.0,0.0,0.0,0.01991213858127594,-0.003546997671946883,-0.11205577850341797
359,698000000,imu1_frame,0.004780566025497554,-0.014524873857953364,0.3258877738595521,0.9452847894030412,0.0,0.00390625,0.0,-0.02930694818496704,0.004192519932985306,-0.11067390441894531
359,723000000,imu1_frame,0.006469845357094987,-0.016310699542337565,0.32586055393981794,0.9452549928815662,0.0,0.00390625,0.0,-0.037896543741226196,-0.015650227665901184,-0.11313152313232422
359,748000000,imu1_frame,0.00473333197900674,-0.014530568377973717,0.3259107894381737,0.9452770046281543,-0.001953125,-0.001953125,0.001953125,0.006044864654541016,0.005108830984681845,-0.11458492279052734
359,773000000,imu1_frame,0.006545660853391225,-0.016270228403661602,0.32590398830361256,0.9452401940245049,-0.001953125,-0.001953125,0.001953125,-0.037632524967193604,-0.017293144017457962,-0.11313819885253906
359,797000000,imu1_frame,0.004806924009585142,-0.01463230088142874,0.325953400736929,0.9452603714323965,-0.001953125,-0.001953125,0.001953125,0.003696948289871216,0.004410875495523214,-0.11451339721679688
359,823000000,imu1_frame,0.006773641427504772,-0.016363241836631,0.3259441363554315,0.9452231387740778,-0.00390625,-0.00390625,0.001953125,-0.040803372859954834,-0.020897844806313515,-0.11301994323730469
359,847000000,imu1_frame,0.0049422916174548855,-0.014803596081986538,0.32597228941208156,0.9452504926378275,-0.00390625,-0.001953125,0.0,-0.00032955408096313477,0.0030075020622462034,-0.11438846588134766
359,872000000,imu1_frame,0.00710702913452245,-0.01603114403449304,0.325935869884624,0.945229232133867,-0.00390625,-0.001953125,0.0,-0.036792248487472534,-0.029176995158195496,-0.11313915252685547
359,898000000,imu1_frame,0.004806768104025235,-0.01478352947250678,0.3259713379557452,0.9452518336761221,-0.00390625,-0.001953125,0.0,0.0009045302867889404,0.005383291281759739,-0.1144256591796875
359,923000000,imu1_frame,0.0071356670497200675,-0.015652196046690676,0.3259569470834812,0.9452280992769354,0.0,0.001953125,0.001953125,-0.029975682497024536,-0.03211384266614914,-0.11336612701416016
359,948000000,imu1_frame,0.006981117728830961,-0.013131709540177373,0.32597755962555913,0.9452605211370957,0.0,0.001953125,0.001953125,0.017567455768585205,-0.006254322826862335,-0.11482620239257812
359,972000000,imu1_frame,0.005248804376129807,-0.014778987014373563,0.3260281499800973,0.9452299598595071,0.0,0.001953125,0.001953125,-0.0018274784088134766,-0.002794489497318864,-0.11434268951416016
359,997000000,imu1_frame,0.003693729292219963,-0.016679262130756465,0.3260756361730401,0.9451893133510538,0.001953125,0.00390625,0.001953125,-0.027017742395401,0.03806665167212486,-0.11344623565673828
360,22000000,imu1_frame,0.005729837640134329,-0.015159536282666307,0.3260666554385443,0.9452078573686499,0.001953125,0.00390625,0.001953125,-0.011922180652618408,0.029819263145327568,-0.11401653289794922
360,48000000,imu1_frame,0.007875520617124435,-0.01368974455924241,0.3259581110973604,0.9452522821335864,0.0,0.0,-0.005859375,0.0015628039836883545,-0.019228525459766388,-0.11427497863769531
360,73000000,imu1_frame,0.005403790265813664,-0.013315258222726088,0.3259250961576996,0.9452863770539695,0.0,0.0,-0.005859375,-0.01093071699142456,-0.015019107609987259,-0.1112070083618164
360,98000000,imu1_frame,0.002929866297356043,-0.012944027242696204,0.3258900706748643,0.945314513734848,0.0,0.0,-0.005859375,0.011684805154800415,0.02831767499446869,-0.1118011474609375
360,123000000,imu1_frame,0.0054019803703373665,-0.01331600553319038,0.32585589758774736,0.9453102329986711,0.0,0.0,0.0,-0.010931789875030518,-0.015001434832811356,-0.1112070083618164
360,148000000,imu1_frame,0.0028818422746711867,-0.012959309637686366,0.325843259811908,0.9453305883731722,-0.00390625,0.0,-0.00390625,0.011706918478012085,0.029289651662111282,-0.11179828643798828
360,172000000,imu1_frame,0.005133379067032192,-0.013686951902251384,0.32576608114644845,0.9453373874662238,-0.00390625,0.0,-0.00390625,0.019082725048065186,0.03136032819747925,-0.11497306823730469
360,197000000,imu1_frame,0.0074861589916038794,-0.01441180896200227,0.3256834981761468,0.945339365625775,-0.00390625,0.0,-0.00390625,-0.009282141923904419,-0.007523685693740845,-0.11399459838867188
360,223000000,imu1_frame,0.005030316401930143,-0.01350396359088158,0.32571978808430513,0.9453565245633776,0.0,0.001953125,0.0,0.023119688034057617,0.03208544570952654,-0.11509132385253906
360,248000000,imu1_frame,0.007345891218034395,-0.014360633831841245,0.325685090475821,0.945340696214818,-0.001953125,0.001953125,0.0,-0.007444113492965698,-0.005257256329059601,-0.11406326293945312
360,273000000,imu1_frame,0.004887303376392883,-0.014952718597127317,0.32572402803250794,0.9453340087157237,-0.001953125,0.001953125,0.0,-0.0027351081371307373,0.004893151577562094,-0.11431312561035156
360,298000000,imu1_frame,0.0073043692343501216,-0.014552801608047243,0.3257067368536294,0.9453306213825965,-0.00390625,0.001953125,0.001953125,-0.01073107123374939,-0.042321521788835526,-0.1139678955078125
360,323000000,imu1_frame,0.004780315087080053,-0.014956205858139998,0.3257689688314664,0.9453190146402854,-0.00390625,0.001953125,0.001953125,-0.002118140459060669,0.006906893569976091,-0.11433124542236328
360,347000000,imu1_frame,0.007193137958378681,-0.014606794945082126,0.32575375381984667,0.9453144409031435,0.00390625,0.00390625,0.001953125,-0.011022627353668213,-0.03990668058395386,-0.1139688491821289
360,373000000,imu1_frame,0.006353704396643753,-0.01208992522948462,0.3257867733839667,0.9453446157018347,0.00390625,0.00390625,0.001953125,0.005662143230438232,-0.0013552159070968628,-0.11159801483154297
360,397000000,imu1_frame,0.007119137949694799,-0.014316027009463137,0.3258036700841003,0.9453022468000635,0.00390625,0.00390625,0.001953125,-0.005181998014450073,-0.0013125836849212646,-0.11415290832519531
360,423000000,imu1_frame,0.005226667792099236,-0.012517780231656322,0.3258537098480711,0.945322879708363,0.001953125,0.001953125,0.001953125,0.04008781909942627,0.022214341908693314,-0.11555290222167969
360,447000000,imu1_frame,0.006934742530895147,-0.014082279869274877,0.3258312113266001,0.9452976359142945,0.0,0.0078125,0.0,0.0003090202808380127,0.0006142556667327881,-0.1143341064453125
360,473000000,imu1_frame,0.008370668832598844,-0.016130499660989124,0.32581223385055724,0.9452598199211113,0.0,0.0078125,0.0,-0.046668171882629395,-0.012873165309429169,-0.11269474029541016
360,497000000,imu1_frame,0.006960188241907897,-0.01407758373523569,0.32583159884405144,0.9452973852764768,0.0,0.0078125,0.0,0.00023350119590759277,0.00011427327990531921,-0.11432933807373047
360,522000000,imu1_frame,0.008100564829890147,-0.0162459336097642,0.32579428868037036,0.9452663814787001,0.0,0.00390625,-0.001953125,-0.047080039978027344,-0.007153984159231186,-0.11270904541015625
360,548000000,imu1_frame,0.006919749917678993,-0.01387980157543513,0.3258347599430423,0.9452995172865387,0.00390625,0.00390625,0.001953125,0.004144638776779175,-0.00039764121174812317,-0.11444854736328125
360,573000000,imu1_frame,0.007729695387078472,-0.016193117263300687,0.32585067273311646,0.9452509581279964,0.00390625,0.00390625,0.001953125,-0.043745994567871094,-0.0006175041198730469,-0.07379436492919922
360,598000000,imu1_frame,0.00689598230767096,-0.013833606886713179,0.3258597265201196,0.9452917620400324,0.0,0.0,0.0,0.005148351192474365,-0.00024490058422088623,-0.07541751861572266
360,622000000,imu1_frame,0.006066468751294606,-0.016084516736788332,0.32587603031306667,0.9452562082026389,0.0,0.0,0.0,0.007912218570709229,-0.009633012115955353,-0.1094675064086914
360,648000000,imu1_frame,0.005168314895445374,-0.018522500585780657,0.32586757544769457,0.9452198309203167,0.0,0.0,-0.001953125,-0.03139936923980713,0.02249268628656864,-0.1080160140991211
360,673000000,imu1_frame,0.0056938621406082334,-0.01607968761861515,0.32583620907781086,0.9452723355910785,0.0,0.0,-0.001953125,-0.06384468078613281,0.03626909735612571,-0.10955619812011719
360,698000000,imu1_frame,0.004623576532329527,-0.013821460412330575,0.32583005407584786,0.9453160136340917,0.0,0.0,-0.001953125,0.019843310117721558,0.002594035118818283,-0.11499786376953125
360,722000000,imu1_frame,0.005650032221420894,-0.015989979272223592,0.3258138672111352,0.9452818212743201,0.0,0.0,0.0,-0.026751935482025146,-0.0025629366282373667,-0.11352825164794922
360,748000000,imu1_frame,0.00458590849634985,-0.013623920721987521,0.3258321366725033,0.945318346875197,0.00390625,0.0,0.0,0.023732513189315796,0.002032272983342409,-0.1151113510131836
360,772000000,imu1_frame,0.004408231744969439,-0.011216576994199971,0.3258352658194349,0.9453497423926205,0.00390625,0.0,0.0,0.034184470772743225,-0.010019180364906788,-0.11240482330322266
