timestamp_sec,timestamp_nsec,frame_id,orientation_x,orientation_y,orientation_z,orientation_w,angular_velocity_x,angular_velocity_y,angular_velocity_z,linear_acceleration_x,linear_acceleration_y,linear_acceleration_z
639,616000000,imu1_frame,0.6958643083939557,0.03654128830826958,-0.6932755705624489,0.18386566241004507,0.025390625,0.01171875,0.0,-0.07138538360595703,-0.04094576835632324,0.04022800922393799
639,641000000,imu1_frame,0.6948298529357106,0.03780774237954924,-0.6945506889172199,0.1827057487057139,0.009765625,0.0,0.0,-0.06439685821533203,-0.003367781639099121,0.013940781354904175
639,666000000,imu1_frame,0.695358928106969,0.036146144916767126,-0.6937628650964806,0.1840176739411342,0.009765625,0.0,0.0,-0.037865638732910156,0.06709599494934082,-0.013238221406936646
639,690000000,imu1_frame,0.696293674988519,0.035166234516772144,-0.692718465040978,0.18460656085893912,0.009765625,0.0,0.0,-0.03865814208984375,0.04172086715698242,-0.028279244899749756
639,716000000,imu1_frame,0.69720309543791,0.03455778867687288,-0.6915756974172224,0.18557116612082664,-0.03125,0.009765625,0.001953125,-0.04328155517578125,0.016243457794189453,-0.004155963659286499
639,741000000,imu1_frame,0.6977090423236769,0.03417392117763204,-0.6909485032523162,0.18607633171498852,-0.01171875,0.013671875,0.005859375,-0.04565715789794922,0.0018246173858642578,0.00951734185218811
639,766000000,imu1_frame,0.6982605499918585,0.035765219574193145,-0.6906834806996143,0.1846872569576546,-0.01171875,0.013671875,0.005859375,-0.037558555603027344,-0.037920236587524414,-0.012871384620666504
639,791000000,imu1_frame,0.6987011395323346,0.037101050175820424,-0.6905582632620494,0.1832198535436876,0.0078125,0.0078125,0.005859375,-0.02957630157470703,-0.0015230178833007812,0.0010490119457244873
639,816000000,imu1_frame,0.6987294332749602,0.03788797431428845,-0.6906502992889899,0.1826029697722387,-0.005859375,0.013671875,-0.001953125,-0.02505207061767578,0.01738297939300537,0.0034987330436706543
639,841000000,imu1_frame,0.6987009533378971,0.036782951260093254,-0.6905013573260815,0.1834989586677553,0.013671875,0.017578125,-0.009765625,-0.031075477600097656,-0.009715080261230469,0.0008035600185394287
639,865000000,imu1_frame,0.6989422350396638,0.03546069490159832,-0.6900446198815184,0.1845554490320611,0.013671875,0.017578125,-0.009765625,-0.038292884826660156,-0.0040683746337890625,0.005304098129272461
639,891000000,imu1_frame,0.6986860598728587,0.03655035968303179,-0.6905602201481555,0.18338059683432234,0.015625,0.0234375,-0.001953125,-0.03143787384033203,0.02792978286743164,1.7002224922180176e-05
639,916000000,imu1_frame,0.6975583154183382,0.037006072254670515,-0.6917778565888253,0.18299274395555318,0.015625,0.0234375,-0.001953125,-0.10684394836425781,0.005233645439147949,0.04800403118133545
639,941000000,imu1_frame,0.6962927843362751,0.037465256761204116,-0.6931260466725087,0.18261707598467825,0.015625,0.021484375,-0.009765625,-0.1042490005493164,0.0220719575881958,0.01418215036392212
639,965000000,imu1_frame,0.6969797771853818,0.03883631149012999,-0.6927859290021191,0.1809933360130368,0.015625,0.021484375,-0.009765625,-0.056990623474121094,-0.01413106918334961,-0.00426444411277771
639,991000000,imu1_frame,0.6957661139097936,0.039833784185926695,-0.6941869501104926,0.18007571371116507,0.015625,0.021484375,-0.009765625,-0.0553436279296875,0.017217159271240234,0.0034108757972717285
640,16000000,imu1_frame,0.6956598253602614,0.03901832332773395,-0.6942181030054972,0.18054418651363982,0.01953125,-0.001953125,0.0,-0.05845451354980469,9.489059448242188e-05,-0.00032135844230651855
640,41000000,imu1_frame,0.6958731949124918,0.03974464878984284,-0.6942310860656054,0.1795106086977122,0.01953125,0.005859375,0.00390625,-0.053765296936035156,0.023296713829040527,0.006459355354309082
640,66000000,imu1_frame,0.6960280965254907,0.03776533887263287,-0.6937824187911371,0.18106524626017192,0.01953125,0.005859375,0.00390625,-0.06389904022216797,0.12682104110717773,0.007343560457229614
640,90000000,imu1_frame,0.6961830750118088,0.035524810658589326,-0.6933667860954468,0.18250921575209458,0.04296875,0.00390625,0.021484375,-0.07438373565673828,0.07594990730285645,0.008348733186721802
640,116000000,imu1_frame,0.6962173988408055,0.03349624209131185,-0.6929100083105617,0.18448592276962525,0.0,0.01171875,0.025390625,-0.0860910415649414,0.02113628387451172,0.006533026695251465
640,141000000,imu1_frame,0.6958958195760557,0.03305545023332089,-0.6931277180512045,0.18496029837663022,0.00390625,0.013671875,0.01171875,-0.0882406234741211,0.009899139404296875,-0.0022669434547424316
640,165000000,imu1_frame,0.6970233567319938,0.03255316513471125,-0.6919547796565753,0.18519534151861547,0.00390625,0.013671875,0.01171875,-0.13009166717529297,0.03422117233276367,-0.01168811321258545
640,190000000,imu1_frame,0.6977587104247409,0.0323825005161117,-0.6911028845697005,0.18563663061520422,-0.025390625,0.001953125,0.017578125,-0.13180160522460938,0.022626399993896484,0.008445441722869873
640,216000000,imu1_frame,0.697138984721078,0.0330290447884394,-0.6918133436969566,0.18520425390704304,-0.001953125,0.00390625,0.015625,-0.12845134735107422,0.039966583251953125,-0.007652729749679565
640,240000000,imu1_frame,0.6976480961258875,0.03235292721236396,-0.6911379543288815,0.185926733308593,-0.013671875,-0.01171875,0.021484375,-0.13286495208740234,0.018721342086791992,0.005267709493637085
640,266000000,imu1_frame,0.6969689891637475,0.03401140188836723,-0.6920753253966125,0.18468675280816657,-0.013671875,-0.01171875,0.021484375,-0.12430477142333984,-0.09117937088012695,0.027729064226150513
640,291000000,imu1_frame,0.6970583483925578,0.035573719560358485,-0.6922561567524284,0.1833727974679942,-0.013671875,-0.01171875,0.021484375,-0.11597919464111328,-0.0171661376953125,-0.00684589147567749
640,315000000,imu1_frame,0.697305241427689,0.03679309338925621,-0.6923085628239001,0.1819904458949095,0.009765625,-0.005859375,0.01171875,-0.10857200622558594,0.017333626747131348,0.0015833675861358643
640,341000000,imu1_frame,0.6973935952553767,0.03706431435086093,-0.6923726533764483,0.18135191963399971,0.01953125,-0.0078125,0.001953125,-0.10530757904052734,0.029297828674316406,0.005074262619018555
640,366000000,imu1_frame,0.6983921470119647,0.03604554542409262,-0.6913068084111433,0.18178015373383494,0.01953125,-0.0078125,0.001953125,-0.02829742431640625,0.04457437992095947,-0.04402817785739899
640,391000000,imu1_frame,0.6994073870088011,0.0349670973292226,-0.6902274748624504,0.18218847945711347,0.025390625,-0.001953125,0.013671875,-0.03280448913574219,0.020056724548339844,-0.017704635858535767
640,415000000,imu1_frame,0.7001734745259951,0.034038516136836984,-0.6894302024178236,0.18244034911037801,0.029296875,-0.0078125,0.0234375,-0.036322593688964844,0.0007803440093994141,0.0021994858980178833
640,441000000,imu1_frame,0.7000187435107488,0.034109266465735553,-0.6898229658403364,0.18153399812168577,0.048828125,-0.009765625,0.017578125,-0.03306865692138672,0.014882802963256836,-0.0016223937273025513
640,466000000,imu1_frame,0.7001747048843797,0.03174286634706482,-0.6894067878657424,0.18293729505156553,0.048828125,-0.009765625,0.017578125,-0.08770942687988281,0.1544795036315918,-0.0009551644325256348
640,490000000,imu1_frame,0.700299744810841,0.030149724768660565,-0.6888173685409926,0.18493754164719323,-0.029296875,0.0078125,0.01953125,-0.0986185073852539,0.10483670234680176,0.0005333572626113892
640,516000000,imu1_frame,0.7003481269401927,0.028429061041429463,-0.6882909522249576,0.18697554563345373,-0.0234375,-0.001953125,0.013671875,-0.11027240753173828,0.053304195404052734,-0.00012464821338653564
640,541000000,imu1_frame,0.7002721166068909,0.027578249147313064,-0.6877487858385342,0.1893673954367431,-0.095703125,-0.005859375,0.02734375,-0.1205902099609375,0.009114980697631836,-0.003190860152244568
640,565000000,imu1_frame,0.6995381703891301,0.02973987114629277,-0.6885171483984394,0.18896037837100052,-0.095703125,-0.005859375,0.02734375,-0.11207389831542969,-0.21874713897705078,0.05347977578639984
640,591000000,imu1_frame,0.698318732035162,0.03173640930655869,-0.6896695068102027,0.18894369581783307,-0.095703125,-0.005859375,0.02734375,-0.1405172348022461,-0.15128087997436523,0.10071554780006409
640,616000000,imu1_frame,0.6971151006076666,0.03327879468542511,-0.6908743852018498,0.18872106983856973,-0.064453125,-0.0234375,0.04296875,-0.1347799301147461,-0.1222231388092041,0.06983727216720581
640,640000000,imu1_frame,0.6960554170909087,0.034765027696263065,-0.6919858496495562,0.18829188265153887,-0.052734375,-0.025390625,0.04296875,-0.12878704071044922,-0.09164547920227051,0.042945653200149536
640,666000000,imu1_frame,0.6966617427751772,0.03547890174619203,-0.6913333371375436,0.18831325138344365,-0.052734375,-0.025390625,0.04296875,-0.04854393005371094,-0.006875038146972656,-0.017532259225845337
640,691000000,imu1_frame,0.6958011061502672,0.03378886611815204,-0.6915772566850864,0.1908927218163233,-0.052734375,-0.025390625,0.04296875,-0.10453987121582031,0.01670074462890625,-0.00438082218170166
640,716000000,imu1_frame,0.6960708599272155,0.03392198194123486,-0.6912876672890241,0.1909345913014838,-0.017578125,-0.0234375,0.048828125,-0.10385990142822266,0.01663064956665039,0.0035839974880218506
640,741000000,imu1_frame,0.6958775347072907,0.03415088427576378,-0.6914457861252724,0.1910259109191495,-0.017578125,-0.013671875,0.0625,-0.10337257385253906,0.019301414489746094,-0.001339256763458252
640,766000000,imu1_frame,0.6966845229014808,0.03436167314563656,-0.690650861443469,0.19092233645009266,-0.017578125,-0.013671875,0.0625,-0.024794578552246094,-0.018970966339111328,-0.018498271703720093
640,791000000,imu1_frame,0.6971695874451336,0.034926580822434286,-0.6903470322414965,0.1901464576819521,0.00390625,-0.0234375,0.03125,-0.020832061767578125,-0.002783060073852539,-0.004539966583251953
640,815000000,imu1_frame,0.6974711522606715,0.03525028237437252,-0.6902113240304317,0.18947226059995298,0.017578125,-0.0078125,0.00390625,-0.01759815216064453,0.009501457214355469,0.004400819540023804
640,841000000,imu1_frame,0.6967280161470053,0.03346485334966228,-0.6906295839411473,0.19099987667907478,0.017578125,-0.0078125,0.00390625,-0.02397632598876953,0.19817805290222168,0.09859773516654968
640,865000000,imu1_frame,0.6960492418721669,0.0317596266061392,-0.69098893914822,0.19246055435293183,0.017578125,-0.0078125,0.00390625,0.005339622497558594,0.07991886138916016,0.038868606090545654
640,890000000,imu1_frame,0.6966694270229785,0.03286797755101861,-0.6907280831179654,0.19096104496823854,0.017578125,-0.0078125,0.00390625,0.009342193603515625,-0.039507150650024414,-0.021094173192977905
640,915000000,imu1_frame,0.6971057756625892,0.03409895340790523,-0.6904426714654204,0.19018337554591544,-0.03125,-0.009765625,0.021484375,0.015415191650390625,-0.014107704162597656,-0.0076018571853637695
640,941000000,imu1_frame,0.6972966454416373,0.03476317048115233,-0.6903306135182922,0.18976974014156361,-0.01953125,-0.021484375,0.017578125,0.019207000732421875,-0.0004146099090576172,-0.0009506344795227051
640,965000000,imu1_frame,0.6959529876768746,0.03559144436872509,-0.6917157425232494,0.18950466901079113,-0.01953125,-0.021484375,0.017578125,-0.055713653564453125,-0.09678339958190918,0.11554384231567383
640,990000000,imu1_frame,0.6943452155686842,0.03599115253337507,-0.6932523842698441,0.1897115975905872,-0.01953125,-0.021484375,0.017578125,-0.05105781555175781,-0.00902700424194336,0.03725916147232056
641,16000000,imu1_frame,0.6923579239868155,0.035853449142246537,-0.6956006864290379,0.18840042546852814,0.091796875,-0.07421875,-0.013671875,-0.04765605926513672,0.015871763229370117,-0.016821950674057007
641,41000000,imu1_frame,0.692749025877578,0.03466014444515237,-0.6955047634836528,0.1875382241151284,0.099609375,-0.078125,-0.005859375,-0.048317909240722656,0.009751558303833008,-0.007585108280181885
641,66000000,imu1_frame,0.6926004298077213,0.031902866798375694,-0.695591893273615,0.18825187842949256,0.099609375,-0.078125,-0.005859375,-0.020132064819335938,0.3851592540740967,-0.05462580919265747
641,91000000,imu1_frame,0.6925816358684502,0.02946554834519517,-0.6951466156172429,0.19035136436178085,0.00390625,-0.046875,0.064453125,-0.0341796875,0.3234107494354248,-0.058063387870788574
641,115000000,imu1_frame,0.6926103096443158,0.026989000848346614,-0.6946228957846121,0.19251385783733332,0.001953125,-0.048828125,0.0859375,-0.048961639404296875,0.2601006031036377,-0.060027092695236206
641,140000000,imu1_frame,0.6926550484054531,0.02446658195245849,-0.6940707978004932,0.1946692012789641,0.001953125,-0.056640625,0.083984375,-0.0643014907836914,0.19623970985412598,-0.06136298179626465
641,166000000,imu1_frame,0.6917681056206854,0.02174588328084329,-0.6943308562554997,0.1972020959772197,0.001953125,-0.056640625,0.083984375,-0.0039033889770507812,0.12854695320129395,0.02552393078804016
641,191000000,imu1_frame,0.6900202430254021,0.020012676985532094,-0.6956031329828365,0.19901718106610844,0.001953125,-0.056640625,0.083984375,-0.05545616149902344,0.009641170501708984,0.01600310206413269
641,215000000,imu1_frame,0.6878529364036963,0.02070940281384349,-0.6973939633308335,0.20017771710562288,-0.091796875,-0.041015625,0.0546875,-0.05776405334472656,0.012691974639892578,-0.041912078857421875
641,241000000,imu1_frame,0.6872687985562205,0.022822149280787875,-0.698018629221843,0.19977672860609652,-0.091796875,-0.041015625,0.0546875,-0.12735557556152344,-0.1419665813446045,-0.01673567295074463
641,265000000,imu1_frame,0.6869382939711112,0.024699085624895995,-0.6983795209038516,0.1994286344220912,-0.091796875,-0.041015625,0.0546875,-0.08081722259521484,-0.07114982604980469,-0.023891568183898926
641,291000000,imu1_frame,0.6867984706815601,0.026562946538689576,-0.6985253527744324,0.19915974008822163,-0.091796875,-0.041015625,0.0546875,-0.03460979461669922,-0.041467905044555664,-0.02580815553665161
641,316000000,imu1_frame,0.6869999979625874,0.028033719999992785,-0.6985922801751903,0.1980250979598179,-0.02734375,-0.04296875,-0.0078125,-0.025876998901367188,-0.006891727447509766,-0.018848180770874023
641,340000000,imu1_frame,0.6872820185159517,0.02949105127005384,-0.6985796230527099,0.19687614171138068,-0.02734375,-0.04296875,-0.0078125,-0.056267738342285156,-0.05078268051147461,-0.04868370294570923
641,366000000,imu1_frame,0.6880414930824437,0.029580650775671815,-0.6978187470800957,0.19690831653369772,-0.02734375,-0.04296875,-0.0078125,-0.05944633483886719,0.024716615676879883,-0.06700402498245239
641,390000000,imu1_frame,0.6888366802135246,0.029099372149344358,-0.6971601733023503,0.19653230598036833,0.03125,-0.044921875,0.0,-0.059627532958984375,0.019802093505859375,-0.046246886253356934
641,415000000,imu1_frame,0.6897180208060635,0.028603516496652003,-0.6964191019945806,0.19614108441745334,0.033203125,-0.033203125,0.005859375,-0.059609413146972656,0.014490127563476562,-0.022936463356018066
641,440000000,imu1_frame,0.6893988676701722,0.026377272737433018,-0.696405659862693,0.19761730098659505,0.033203125,-0.033203125,0.005859375,-0.06818389892578125,0.08273839950561523,0.004951298236846924
641,465000000,imu1_frame,0.6878493429199414,0.026569114977893136,-0.6980679857305078,0.1971254698714707,0.033203125,-0.033203125,0.005859375,-0.031208038330078125,-0.01839447021484375,0.04163479804992676
641,490000000,imu1_frame,0.6864040319904445,0.027082557547643125,-0.6996979657622223,0.1963130068338502,0.033203125,-0.033203125,0.005859375,-0.023613929748535156,-0.03311586380004883,0.03849738836288452
641,516000000,imu1_frame,0.684914141147189,0.02814033486118009,-0.7013893470488807,0.19532978435674853,0.013671875,-0.025390625,-0.005859375,-0.017844200134277344,0.0011663436889648438,-0.0003140568733215332
641,541000000,imu1_frame,0.6857906452072947,0.027211271539034035,-0.7004736978270841,0.19567150099041525,0.013671875,-0.025390625,-0.005859375,-0.06066322326660156,0.05817079544067383,-0.05218249559402466
641,566000000,imu1_frame,0.6841132566716456,0.027139683874003836,-0.7020849106351902,0.19577861952652337,0.013671875,-0.025390625,-0.005859375,-0.10120677947998047,0.02392864227294922,0.01625847816467285
641,591000000,imu1_frame,0.6837630578373229,0.025192179291040496,-0.7020694674437249,0.19731167660026228,0.013671875,-0.025390625,-0.005859375,-0.07393550872802734,0.05618858337402344,0.004823803901672363
641,616000000,imu1_frame,0.6838457678129485,0.023116963951837242,-0.7017408014285083,0.1984450035461804,0.04296875,-0.013671875,0.0,-0.08473587036132812,0.012104988098144531,0.005026876926422119
641,641000000,imu1_frame,0.6836700116486899,0.02441502074924561,-0.7023980374824726,0.19656098004147463,0.04296875,-0.013671875,0.0,-0.03906059265136719,0.017017841339111328,0.0015450119972229004
641,666000000,imu1_frame,0.682998075679783,0.02235060182207151,-0.7027588237922293,0.19784871694824588,0.04296875,-0.013671875,0.0,-0.05076408386230469,0.052327632904052734,0.020842313766479492
641,691000000,imu1_frame,0.6821748690639913,0.0206708664907595,-0.7031483196071372,0.1994808359961102,0.0,-0.017578125,-0.0078125,-0.06273937225341797,0.010836601257324219,-0.0025600194931030273
641,716000000,imu1_frame,0.6824238158339082,0.0212530775680947,-0.7030088363930103,0.1990593334408568,-0.017578125,-0.025390625,-0.013671875,-0.05861854553222656,0.023316621780395508,0.005004286766052246
641,741000000,imu1_frame,0.6807891752430296,0.022358103195559458,-0.7046900488702994,0.19859040539912054,-0.017578125,-0.025390625,-0.013671875,-0.05111885070800781,0.012877702713012695,0.0010541081428527832
641,766000000,imu1_frame,0.680184898977248,0.02405957669858006,-0.7055652502214758,0.19735074778754302,-0.017578125,-0.025390625,-0.013671875,0.03620433807373047,0.0165252685546875,-0.013608098030090332
641,791000000,imu1_frame,0.6804831286873568,0.023116495654202523,-0.7050422953606537,0.19830204475273594,-0.017578125,-0.025390625,-0.013671875,0.030210494995117188,-0.010535955429077148,-0.006491422653198242
641,815000000,imu1_frame,0.6805727794390874,0.02340666927698181,-0.7050102262215292,0.1980742301335065,-0.009765625,-0.025390625,0.0,0.03252410888671875,-0.0039865970611572266,-0.0033791065216064453
641,841000000,imu1_frame,0.6807763429650779,0.021651826267518264,-0.7044186805594367,0.1996724611890132,-0.009765625,-0.025390625,0.0,-0.09634876251220703,0.21917724609375,-0.03904980421066284
641,866000000,imu1_frame,0.6816582498724643,0.022174057983334015,-0.7037235157407193,0.19905666260359717,-0.009765625,-0.025390625,0.0,-0.09162235260009766,0.00034236907958984375,-0.054106295108795166
641,891000000,imu1_frame,0.6823108160019234,0.021626316308402078,-0.7029933526926068,0.19946077027758294,-0.009765625,-0.025390625,0.0,-0.09808540344238281,0.02359151840209961,0.0020453333854675293
641,916000000,imu1_frame,0.6822772140943405,0.021555262576650656,-0.7028365649183963,0.20013479656627928,-0.044921875,-0.04296875,0.052734375,-0.1002798080444336,0.013602495193481445,0.0014268755912780762
641,941000000,imu1_frame,0.6802391145671096,0.02181614162214763,-0.7045654432921495,0.20096352678089086,-0.044921875,-0.04296875,0.052734375,-0.10050582885742188,0.015001535415649414,-0.014046192169189453
641,966000000,imu1_frame,0.6807573174746272,0.02251469014041001,-0.7040833557926515,0.20082129251747535,-0.044921875,-0.04296875,0.052734375,-0.10111808776855469,-0.014767885208129883,-0.03882277011871338
641,990000000,imu1_frame,0.6815500098333751,0.023448727116685254,-0.7034419881442068,0.20027259075684686,-0.03125,-0.005859375,0.017578125,-0.095367431640625,0.001998424530029297,-0.016903460025787354
642,15000000,imu1_frame,0.6821982531332441,0.02440328444071621,-0.702927380981353,0.19975765366351136,-0.033203125,-0.01171875,0.01171875,-0.08962440490722656,0.019158124923706055,0.0014622211456298828
642,40000000,imu1_frame,0.6818883378880117,0.02607384899612801,-0.7034376052371404,0.1988063997689437,-0.033203125,-0.01171875,0.01171875,-0.00312042236328125,0.017247915267944336,-0.0053460001945495605
642,66000000,imu1_frame,0.6823072594394062,0.025712567493746587,-0.7028314296584336,0.19955863567745868,-0.033203125,-0.01171875,0.01171875,-0.04106616973876953,0.0001785755157470703,0.005998790264129639
642,91000000,imu1_frame,0.681945853690271,0.024120864791398654,-0.7026619140737012,0.20157944098207262,-0.033203125,-0.01171875,0.01171875,-0.015003204345703125,-0.008107185363769531,-0.005688011646270752
642,115000000,imu1_frame,0.6823193308858773,0.02496618841245188,-0.7024812797396471,0.20084091154680256,-0.0078125,-0.001953125,0.0,-0.009037017822265625,0.011725425720214844,0.005346775054931641
642,140000000,imu1_frame,0.6811004495524652,0.026073358870048247,-0.7037984044365674,0.20022528184324126,-0.0078125,-0.001953125,0.0,-0.04734611511230469,-0.03750109672546387,0.0519258975982666
642,166000000,imu1_frame,0.6797294943417002,0.02699689512729568,-0.7052049215500599,0.19981241402134314,-0.0078125,-0.001953125,0.0,-0.08317375183105469,-0.013204574584960938,0.05158358812332153
642,191000000,imu1_frame,0.6807969568251888,0.02642116766792128,-0.7040816866200218,0.2002158935822305,-0.0078125,-0.001953125,0.0,-0.08552837371826172,0.046885013580322266,-0.03398817777633667
642,216000000,imu1_frame,0.6817707893275264,0.025782075156378932,-0.7031660444885036,0.20020336984862191,0.01953125,-0.01171875,-0.017578125,-0.08674335479736328,0.033960819244384766,-0.008614420890808105
642,240000000,imu1_frame,0.6802636621497887,0.026527330942688086,-0.7047964687546744,0.1994983416035248,0.01953125,-0.01171875,-0.017578125,-0.04420661926269531,0.0212705135345459,-0.008955895900726318
642,266000000,imu1_frame,0.6793889767929013,0.02478478744278038,-0.705313813307066,0.2008700009507542,0.01953125,-0.01171875,-0.017578125,-0.051629066467285156,0.021776437759399414,0.005094170570373535
642,291000000,imu1_frame,0.6792132462953188,0.023623838259256246,-0.7053551397498051,0.20145820199586773,0.025390625,-0.021484375,-0.0078125,-0.05752086639404297,-0.0013966560363769531,-0.0004131197929382324
642,316000000,imu1_frame,0.679470112412257,0.024569220997261224,-0.7054960710480632,0.19998003263778225,0.03125,-0.013671875,-0.017578125,-0.049246788024902344,0.030365467071533203,0.007152557373046875
642,340000000,imu1_frame,0.6803753048187399,0.02531668400357795,-0.704998450875586,0.1985590450392379,0.03125,-0.013671875,-0.017578125,-0.08046340942382812,-0.02228069305419922,-0.04640763998031616
642,366000000,imu1_frame,0.6800842949483192,0.023264687126599213,-0.7049763124946877,0.19988122702980748,0.03125,-0.013671875,-0.017578125,-0.05687141418457031,0.12436532974243164,0.022128582000732422
642,390000000,imu1_frame,0.6793769154482875,0.021487744745564447,-0.7053706078043532,0.20109099738038289,0.03125,-0.013671875,-0.017578125,-0.028751373291015625,0.01252293586730957,0.0017794370651245117
642,415000000,imu1_frame,0.6794635268932844,0.020749522239721686,-0.705310982988192,0.2010850323241211,0.037109375,-0.009765625,-0.01953125,-0.03075885772705078,0.0019338130950927734,0.003942131996154785
642,441000000,imu1_frame,0.6798069647141985,0.022351170029047025,-0.7055536222526098,0.19888942166596613,0.037109375,-0.009765625,-0.01953125,-0.053170204162597656,-0.10416364669799805,-0.025171339511871338
642,465000000,imu1_frame,0.67946407214048,0.020470384544184202,-0.7056175733634636,0.2000334426728361,0.037109375,-0.009765625,-0.01953125,-0.06388282775878906,0.01230621337890625,0.0032269954681396484
642,491000000,imu1_frame,0.6803585705789986,0.021404618902434187,-0.7052131116545257,0.19831420745847933,0.037109375,-0.009765625,-0.01953125,-0.09311389923095703,0.005342245101928711,-0.01135331392288208
642,516000000,imu1_frame,0.6812488560935297,0.022022249618206684,-0.7047438842076839,0.19685292546690158,0.04296875,0.001953125,-0.025390625,-0.08506584167480469,0.029598236083984375,0.01311558485031128
642,540000000,imu1_frame,0.6819288991574475,0.020401224928977894,-0.7039562121217596,0.19749029831992618,0.04296875,0.001953125,-0.025390625,-0.05726051330566406,0.07011747360229492,-0.009398043155670166
642,566000000,imu1_frame,0.6818542473209671,0.018345881737775776,-0.703763543740781,0.19863304995654324,0.04296875,0.001953125,-0.025390625,-0.06831169128417969,0.14399361610412598,0.02618354558944702
642,591000000,imu1_frame,0.6814732638713051,0.01653864229490432,-0.7037212678285032,0.2002424559015289,0.001953125,-0.017578125,-0.0078125,-0.08061695098876953,0.09916043281555176,0.014793455600738525
642,616000000,imu1_frame,0.6812353193297682,0.014884622738967058,-0.7035273010487959,0.20185694038745483,-0.0078125,-0.009765625,-0.013671875,-0.09249496459960938,0.055788516998291016,0.007424294948577881
642,640000000,imu1_frame,0.6813528130694134,0.016744156845859674,-0.7038399738355932,0.20021805254529293,-0.0078125,-0.009765625,-0.013671875,-0.1150827407836914,-0.1667006015777588,-0.02737194299697876
642,666000000,imu1_frame,0.6810959484890864,0.018809132095969648,-0.7045269951973651,0.1984848572050773,-0.0078125,-0.009765625,-0.013671875,-0.06684684753417969,-0.11396360397338867,0.006306111812591553
642,690000000,imu1_frame,0.6805698269367174,0.02065205550514823,-0.7053983102335836,0.1970061602751139,-0.0078125,-0.009765625,-0.013671875,-0.052018165588378906,-0.14465022087097168,0.03280842304229736
642,715000000,imu1_frame,0.6801339669426791,0.022153156783747182,-0.7063907498803549,0.19477970412442747,0.0546875,-0.015625,-0.029296875,-0.04002189636230469,-0.09224271774291992,0.02246689796447754
642,741000000,imu1_frame,0.678274959621988,0.02228826619154548,-0.708370675074231,0.19405488665540938,0.0546875,-0.015625,-0.029296875,-0.117401123046875,0.04436898231506348,-0.026810765266418457
642,765000000,imu1_frame,0.6792768315617004,0.021211495695604123,-0.7074912273583992,0.19387940005260704,0.0546875,-0.015625,-0.029296875,-0.08037567138671875,0.06670475006103516,-0.04027271270751953
642,791000000,imu1_frame,0.680421932719473,0.020227180177691272,-0.7065195239570954,0.1935123172405197,0.0546875,-0.015625,-0.029296875,-0.046067237854003906,0.0532231330871582,-0.049588799476623535
642,815000000,imu1_frame,0.6814460667820348,0.019198178202916676,-0.7056240143056012,0.19328072448185918,0.056640625,-0.01171875,-0.0234375,-0.047926902770996094,0.03791022300720215,-0.023209750652313232
642,840000000,imu1_frame,0.6800723578039141,0.019191219334952082,-0.7071311527218102,0.19261053476325496,0.056640625,-0.01171875,-0.0234375,-0.0860280990600586,0.013379335403442383,0.05365180969238281
642,865000000,imu1_frame,0.6785559587448707,0.01975351109038171,-0.7088835749960044,0.19145674903830345,0.056640625,-0.01171875,-0.0234375,-0.08218193054199219,0.04286766052246094,-0.021452903747558594
642,891000000,imu1_frame,0.679391466732464,0.01902190614433196,-0.7080722010724231,0.19157024843696824,0.015625,-0.01953125,-0.021484375,-0.08387470245361328,0.027745723724365234,0.0003629922866821289
642,916000000,imu1_frame,0.67989375837361,0.01856538831563935,-0.7076035116323411,0.19156480367456882,0.015625,-0.005859375,-0.029296875,-0.0846109390258789,0.019387483596801758,0.01361382007598877
642,940000000,imu1_frame,0.6793772961155637,0.020323245640626507,-0.7085275705785746,0.18979498660227934,0.015625,-0.005859375,-0.029296875,-0.10915851593017578,-0.08274149894714355,0.03600263595581055
642,965000000,imu1_frame,0.6793555875540189,0.02155856002562872,-0.7091153789835443,0.18752758047225795,0.080078125,0.037109375,-0.013671875,-0.09803104400634766,-0.035193681716918945,0.03643357753753662
642,990000000,imu1_frame,0.6791813350705235,0.019402469594936127,-0.7091273361950757,0.18834723073704773,0.080078125,0.037109375,-0.013671875,0.009321212768554688,0.03796029090881348,0.03009188175201416
643,15000000,imu1_frame,0.6781973923758439,0.017992125942490198,-0.7098678218075798,0.1892412638428448,0.033203125,-0.001953125,-0.037109375,0.0006275177001953125,0.010439872741699219,0.0029602646827697754
643,41000000,imu1_frame,0.6794362878045827,0.01867060217123332,-0.7090589677655335,0.1877581413951689,0.033203125,-0.001953125,-0.037109375,-0.14721965789794922,-0.004385471343994141,-0.07696998119354248
643,66000000,imu1_frame,0.6802058243354614,0.01723417834221579,-0.7082118644882558,0.18830553532770325,0.033203125,-0.001953125,-0.037109375,-0.15690040588378906,0.12158918380737305,-0.018549203872680664
643,91000000,imu1_frame,0.6807197529443462,0.015447210804892279,-0.7075526378901207,0.18908005247637644,0.0390625,-0.0234375,-0.01171875,-0.1649007797241211,0.08445477485656738,-0.006018161773681641
643,115000000,imu1_frame,0.681334824043581,0.014081757111044793,-0.7067192789437371,0.19008530303895682,0.005859375,-0.001953125,0.00390625,-0.17227840423583984,0.0496830940246582,0.009553849697113037
643,141000000,imu1_frame,0.6812627424897072,0.01588844114437883,-0.7072105353239648,0.18836637667109163,0.005859375,-0.001953125,0.00390625,-0.12141704559326172,-0.09737849235534668,0.008762836456298828
643,166000000,imu1_frame,0.6807534847948881,0.01753440326448559,-0.7080531746306306,0.18689018041957153,0.005859375,-0.001953125,0.00390625,-0.10775184631347656,-0.0879812240600586,0.035373151302337646
643,190000000,imu1_frame,0.6802723298810809,0.019157144970402357,-0.7089551125571811,0.1850546118684519,0.02734375,-0.005859375,-0.0234375,-0.0971841812133789,-0.0390162467956543,0.02372950315475464
643,215000000,imu1_frame,0.6796614574529538,0.020630083755228023,-0.7100222252836234,0.18303863663300857,0.044921875,-0.017578125,-0.01953125,-0.08696842193603516,0.010821342468261719,0.008625924587249756
643,240000000,imu1_frame,0.6794427392809451,0.01861865314067724,-0.7100144849098222,0.18409329431533467,0.044921875,-0.017578125,-0.01953125,-0.05790424346923828,0.0048449039459228516,0.001226961612701416
643,265000000,imu1_frame,0.6797209691336147,0.01931091119249439,-0.71007833931663,0.1827436588840021,0.037109375,-0.0078125,-0.03515625,-0.050772666931152344,0.03130698204040527,0.009550929069519043
643,290000000,imu1_frame,0.6791663223266968,0.02075073047088202,-0.711043098381696,0.18088732969976704,0.037109375,-0.0078125,-0.03515625,-0.045650482177734375,0.0432591438293457,-0.004502534866333008
643,315000000,imu1_frame,0.6795647022199168,0.01913779393557006,-0.7105897080914385,0.18135001266765738,0.05078125,-0.015625,-0.03515625,-0.05167961120605469,0.013120174407958984,0.004807412624359131
643,340000000,imu1_frame,0.6796518079329572,0.017148406016477262,-0.7103359765845162,0.18221457821557122,0.05078125,-0.015625,-0.03515625,-0.09569549560546875,0.08687496185302734,0.005770742893218994
643,366000000,imu1_frame,0.6796130802698506,0.018755719351502137,-0.7109431917701801,0.1798167461427392,0.05078125,-0.015625,-0.03515625,-0.08334636688232422,0.02813124656677246,0.005845427513122559
643,391000000,imu1_frame,0.67964037987139,0.017876203935595296,-0.7108504478222449,0.1801694652599032,0.021484375,-0.015625,-0.029296875,-0.08680152893066406,0.011012077331542969,0.006290256977081299
643,416000000,imu1_frame,0.6796429298213449,0.018758839104501573,-0.7111207437504351,0.1789996695727057,0.01953125,-0.0078125,-0.0234375,-0.08045101165771484,0.03889822959899902,0.007031738758087158
643,440000000,imu1_frame,0.6782797807346334,0.018358815614459036,-0.712361352072827,0.17927854586867298,0.01953125,-0.0078125,-0.0234375,-0.08453845977783203,0.03491926193237305,0.04450279474258423
643,465000000,imu1_frame,0.6784374583541574,0.017125839385157642,-0.7120633165135607,0.17998653839388534,0.01953125,-0.0078125,-0.0234375,-0.09043121337890625,0.0077207088470458984,0.00871819257736206
643,491000000,imu1_frame,0.6782724169776553,0.018710210878203997,-0.7125789495924152,0.17840318655773277,0.0078125,0.0,-0.04296875,-0.08081722259521484,0.051517486572265625,0.00552600622177124
643,515000000,imu1_frame,0.6784370653981561,0.017578845175891287,-0.7122409534154465,0.17923994190491097,0.005859375,0.00390625,-0.05859375,-0.08682823181152344,0.02400827407836914,0.008934855461120605
643,540000000,imu1_frame,0.6792306322283268,0.019447736735256002,-0.7119372108366191,0.17723696455524987,0.005859375,0.00390625,-0.05859375,-0.1560649871826172,-0.11767959594726562,-0.08194047212600708
643,566000000,imu1_frame,0.6801272046653541,0.020382361636385203,-0.7118591833690808,0.1739771475261053,0.123046875,-0.01953125,-0.080078125,-0.14269447326660156,-0.06447100639343262,-0.05739879608154297
643,591000000,imu1_frame,0.678879736914473,0.020463318242343667,-0.7135295391817493,0.17198590677299375,0.123046875,-0.01953125,-0.080078125,0.018001556396484375,-0.0320436954498291,0.10108590126037598
643,616000000,imu1_frame,0.677590932160765,0.020472794289219956,-0.7152073887297683,0.17008757877588548,0.12109375,-0.015625,-0.09375,0.02151966094970703,-0.001763463020324707,0.06691879034042358
643,640000000,imu1_frame,0.6771296364955373,0.018490688518638432,-0.7157391192116417,0.16991487000163263,0.12109375,-0.015625,-0.09375,-0.09789466857910156,0.04877126216888428,0.014064610004425049
643,665000000,imu1_frame,0.6778822647011881,0.01667017470200487,-0.715221025887862,0.1692826766296763,0.12109375,-0.015625,-0.09375,-0.14352703094482422,0.10715031623840332,-0.006384730339050293
643,691000000,imu1_frame,0.6781818142723621,0.015032634867768492,-0.7148947430847004,0.16961412968570738,0.052734375,-0.03125,-0.068359375,-0.14897823333740234,0.07877397537231445,0.000548243522644043
643,715000000,imu1_frame,0.6784301075953774,0.013488808371312585,-0.7146237451153523,0.16989274285311623,0.056640625,-0.03515625,-0.05859375,-0.1541585922241211,0.05261397361755371,0.006259322166442871
643,740000000,imu1_frame,0.6781559582341624,0.01522947580172462,-0.7154694684104166,0.16726027367795812,0.056640625,-0.03515625,-0.05859375,-0.06360149383544922,-0.039368629455566406,1.8775463104248047e-05
643,766000000,imu1_frame,0.6779398896289303,0.017035102693884197,-0.7162702706495967,0.16451203819075416,0.056640625,-0.03515625,-0.05859375,-0.05102729797363281,-0.0548480749130249,-0.004574835300445557
643,790000000,imu1_frame,0.6779191422687798,0.018549384205798155,-0.7168178109819019,0.16203019086041304,0.060546875,-0.033203125,-0.0546875,-0.04011726379394531,-0.0004886388778686523,-0.004094421863555908
643,816000000,imu1_frame,0.6783250520298805,0.01905613649809318,-0.7167892908609422,0.16039046093048417,0.056640625,-0.025390625,-0.05078125,-0.03329753875732422,0.026956915855407715,0.007524728775024414
643,840000000,imu1_frame,0.6786128207605936,0.01729124445064575,-0.7164438342048057,0.16091576925402662,0.056640625,-0.025390625,-0.05078125,-0.07487106323242188,0.14668488502502441,-0.021734237670898438
643,865000000,imu1_frame,0.6790651302149436,0.01528474064748801,-0.7158425237392941,0.16188393013532545,0.044921875,-0.0078125,-0.01171875,-0.08254718780517578,0.10413265228271484,-0.011013984680175781
643,890000000,imu1_frame,0.6779306446299628,0.013831989674733482,-0.7167757068936766,0.16263856596856477,0.044921875,-0.0078125,-0.01171875,-0.05127716064453125,0.03856205940246582,0.032389044761657715
643,915000000,imu1_frame,0.6766479700574471,0.01271544065967372,-0.7177513914087746,0.16376441102002018,0.00390625,-0.0078125,-0.0234375,-0.05963706970214844,0.012352466583251953,-0.002176821231842041
643,941000000,imu1_frame,0.6776115097105262,0.013691208292618618,-0.7170937666675681,0.16257835812256485,0.00390625,-0.0078125,-0.0234375,-0.0558929443359375,0.003328084945678711,-0.015194356441497803
643,966000000,imu1_frame,0.6781159404223055,0.015308530131793112,-0.7169620947466773,0.16090299856383333,0.00390625,-0.0078125,-0.0234375,-0.12420463562011719,0.007531166076660156,-0.0010516643524169922
643,991000000,imu1_frame,0.6786969853420597,0.016380324733128178,-0.7166346612856107,0.15980253218674365,0.0,-0.001953125,-0.013671875,-0.11716938018798828,0.03517580032348633,0.015227258205413818
644,16000000,imu1_frame,0.6781831337847041,0.015153837151778215,-0.7169095886227466,0.16086839344725265,0.0078125,0.005859375,-0.0234375,-0.1244649887084961,0.0055969953536987305,0.000629127025604248
644,41000000,imu1_frame,0.6783069809160224,0.017107547934920617,-0.7171790320604345,0.15893774698636992,0.0078125,0.005859375,-0.0234375,-0.11359691619873047,-0.058925628662109375,0.005202829837799072
644,65000000,imu1_frame,0.6783480608475673,0.01884194035118596,-0.7174744520367964,0.15722372690737946,0.0078125,0.005859375,-0.0234375,-0.06532001495361328,0.027166128158569336,0.007477879524230957
644,91000000,imu1_frame,0.6782488315713309,0.017454831438836412,-0.7174510674618811,0.15791712107739822,0.03125,-0.001953125,-0.03515625,-0.07103252410888672,-0.0011858940124511719,0.003876805305480957
644,115000000,imu1_frame,0.6784122721105608,0.018654679513590375,-0.717628403238565,0.15626345333218306,0.03125,0.0,-0.0390625,-0.06323814392089844,0.037120819091796875,0.009104728698730469
644,141000000,imu1_frame,0.6782724859838128,0.016986920185870225,-0.7175932089341904,0.15721916483517062,0.03125,0.0,-0.0390625,-0.07051277160644531,0.0014836788177490234,0.0041697025299072266
644,165000000,imu1_frame,0.6785345553077989,0.018087424221056584,-0.7177072887173312,0.1554347131766666,0.044921875,0.009765625,-0.0546875,-0.062378883361816406,0.039786458015441895,0.012057840824127197
644,190000000,imu1_frame,0.6772922600706163,0.01742733792423495,-0.7188879090683484,0.15547236582958746,0.044921875,0.009765625,-0.0546875,-0.10139083862304688,0.03421640396118164,0.017676353454589844
644,216000000,imu1_frame,0.6764914494172806,0.015910724725632708,-0.7195154705371831,0.1562166936075267,0.041015625,0.0,-0.05078125,-0.10883808135986328,0.00571286678314209,-0.004611492156982422
644,241000000,imu1_frame,0.6774939645416185,0.016978319957311652,-0.7189520431626878,0.15434255503037464,0.041015625,0.0,-0.05078125,-0.1035165786743164,0.0032453536987304688,-0.016498923301696777
644,265000000,imu1_frame,0.6781733936482184,0.018477099792525764,-0.7187393169327311,0.15216188493176244,0.041015625,0.0,-0.05078125,-0.0891122817993164,-0.06219840049743652,-0.032579779624938965
644,291000000,imu1_frame,0.6787882243460042,0.019858539258001233,-0.7185821060922472,0.14997313663375708,0.04296875,-0.015625,-0.0390625,-0.07931900024414062,-0.01563572883605957,-0.015253424644470215
644,316000000,imu1_frame,0.679527431387435,0.020888197255808566,-0.7181829145863569,0.14838953603149613,0.029296875,-0.00390625,-0.02734375,-0.07181453704833984,0.017521977424621582,0.00524294376373291
644,340000000,imu1_frame,0.6785001213737877,0.019542745530700397,-0.719007854355704,0.14927615940827352,0.029296875,-0.00390625,-0.02734375,-0.11785316467285156,0.02922046184539795,0.012128710746765137
644,366000000,imu1_frame,0.677393128923749,0.018140766800400835,-0.719899082169996,0.1501824655463621,0.029296875,-0.00390625,-0.02734375,-0.1253662109375,0.04012179374694824,0.0208318829536438
644,390000000,imu1_frame,0.6765854644342764,0.016416565512837898,-0.7204823555260248,0.15122096768863738,0.0390625,-0.0078125,-0.017578125,-0.13383197784423828,0.00469815731048584,-0.0017889142036437988
644,416000000,imu1_frame,0.6772685744969891,0.017398268000347328,-0.7200936919738569,0.14989880936439998,0.017578125,-0.001953125,-0.01171875,-0.12671852111816406,0.03384220600128174,0.017111241817474365
644,441000000,imu1_frame,0.6777941420262247,0.01566535604092683,-0.7193930746470064,0.15107382898759023,0.017578125,-0.001953125,-0.01171875,-0.02023792266845703,0.18356990814208984,-0.0444907546043396
644,465000000,imu1_frame,0.6780282751253279,0.014039175890566375,-0.7187460372462968,0.15324716510797584,-0.046875,-0.01953125,0.048828125,-0.029726028442382812,0.13102948665618896,-0.03922909498214722
644,490000000,imu1_frame,0.6779063083451561,0.012193909134147305,-0.7183660590392775,0.1557066180553918,-0.046875,-0.01953125,0.048828125,-0.03748607635498047,0.10794055461883545,-0.00822991132736206
644,515000000,imu1_frame,0.6779685934368194,0.010918931878228497,-0.717647202153717,0.15881390518742874,-0.115234375,0.001953125,0.06640625,-0.049373626708984375,0.04851937294006348,-0.007173299789428711
644,541000000,imu1_frame,0.6775593212505762,0.013313332802889214,-0.7180035464197941,0.1587672153964311,-0.115234375,0.001953125,0.06640625,-0.08199024200439453,-0.2987323999404907,0.02222311496734619
644,566000000,imu1_frame,0.6773680312673491,0.01562944448651877,-0.7181580890582995,0.1586733430736551,-0.115234375,0.001953125,0.06640625,-0.07938766479492188,-0.5299646854400635,-0.02060621976852417
644,590000000,imu1_frame,0.6774705383400753,0.01795039097950036,-0.7184378429683356,0.15671157881885026,-0.01171875,0.013671875,-0.052734375,-0.0677347183227539,-0.47162437438964844,-0.016368210315704346
644,615000000,imu1_frame,0.6775410480040485,0.02007153580507795,-0.7188690280694008,0.1541511667246031,0.033203125,0.001953125,-0.068359375,-0.055541038513183594,-0.4079725742340088,-0.012925386428833008
644,640000000,imu1_frame,0.6786099008456019,0.02116438422076686,-0.7182120928850785,0.15235504897611224,0.033203125,0.001953125,-0.068359375,-0.08576583862304688,0.010532259941101074,-0.01888298988342285
644,665000000,imu1_frame,0.6792081711102078,0.0198864769240852,-0.7175893905080172,0.15279481327259417,0.033203125,0.001953125,-0.068359375,-0.046341896057128906,0.05895578861236572,-0.004067897796630859
644,691000000,imu1_frame,0.6797659211963218,0.017939138399269465,-0.7169269018445344,0.15366293341338033,0.048828125,0.013671875,-0.01953125,-0.052834510803222656,0.018208026885986328,0.00930696725845337
644,716000000,imu1_frame,0.6793709041425581,0.01672492065066756,-0.7171561524058577,0.1544749322711554,0.025390625,0.01953125,-0.005859375,-0.058608055114746094,-0.00834798812866211,-0.0019178390502929688
644,740000000,imu1_frame,0.6782067694291409,0.016297447209406745,-0.7182148149097833,0.15471732533575663,0.025390625,0.01953125,-0.005859375,-0.10112953186035156,0.025353431701660156,0.041170358657836914
644,766000000,imu1_frame,0.6765592417460493,0.016037878768916956,-0.7195910201475485,0.15556073597027933,-0.017578125,0.00390625,0.009765625,-0.10659122467041016,0.01597130298614502,-0.0026340484619140625
644,790000000,imu1_frame,0.6770278841469408,0.017699910381280683,-0.7193876154761075,0.15427707528862317,-0.017578125,0.00390625,0.009765625,-0.1411609649658203,-0.0974808931350708,-0.02830517292022705
644,816000000,imu1_frame,0.6775787127221369,0.01935917143362085,-0.7191761065019967,0.15263694960213348,0.00390625,0.005859375,0.001953125,-0.13184165954589844,-0.054165005683898926,-0.012525796890258789
644,840000000,imu1_frame,0.6760248794083541,0.018663687902092028,-0.7204756617636029,0.15348240935401153,0.00390625,0.005859375,0.001953125,-0.0991373062133789,0.008106231689453125,-0.015018820762634277
644,865000000,imu1_frame,0.6771156219965556,0.019386128897039286,-0.7196181701575562,0.15260505114083064,0.00390625,0.005859375,0.001953125,-0.05035209655761719,-0.012761354446411133,-0.024721801280975342
644,891000000,imu1_frame,0.6780200812654439,0.019889214140202283,-0.7188913458106652,0.15194874622785254,0.00390625,-0.005859375,0.0234375,-0.045823097229003906,-2.0265579223632812e-06,-0.0001964569091796875
644,915000000,imu1_frame,0.6782947073452595,0.020330400493431308,-0.7187375268477117,0.15139132175927458,0.0078125,-0.005859375,0.021484375,-0.04276561737060547,0.012685298919677734,0.0075716376304626465
644,941000000,imu1_frame,0.678470707995098,0.020944433359232306,-0.7187025965971203,0.15068313358982244,0.0078125,-0.005859375,0.021484375,-0.11724853515625,0.030150890350341797,0.012833356857299805
644,966000000,imu1_frame,0.6779116649639707,0.019153969580682963,-0.7189422640702926,0.15228565555744628,0.0078125,-0.005859375,0.021484375,-0.09195423126220703,-0.014410734176635742,-0.003870368003845215
644,991000000,imu1_frame,0.6783034476008759,0.020490817490491885,-0.7187942968739974,0.15106064395716334,-0.00390625,-0.005859375,0.005859375,-0.08494281768798828,0.019396662712097168,0.007531523704528809
645,15000000,imu1_frame,0.6781988182674382,0.019999859519302506,-0.7187999833713455,0.1515683094357517,-0.00390625,-0.0078125,0.00390625,-0.08705425262451172,0.005983471870422363,0.004869580268859863
645,41000000,imu1_frame,0.6789620013403174,0.018678786466704175,-0.7178768047862488,0.152691181218721,-0.00390625,-0.0078125,0.00390625,-0.092620849609375,0.044236183166503906,-0.011538982391357422
645,65000000,imu1_frame,0.6797407454384587,0.01776047163425251,-0.7169815404934056,0.1535400769499629,-0.0078125,0.005859375,0.00390625,-0.0960092544555664,0.017431259155273438,0.008513033390045166
645,91000000,imu1_frame,0.6787871303892337,0.019332763192049292,-0.7180813703100728,0.15242513407872701,-0.0078125,0.005859375,0.00390625,-0.04740619659423828,-0.016701102256774902,0.019588947296142578
645,115000000,imu1_frame,0.6777855085557803,0.020700842842748163,-0.7192362102299323,0.1512532756387999,0.005859375,-0.001953125,0.00390625,-0.042603492736816406,0.021486639976501465,-0.005938589572906494
645,140000000,imu1_frame,0.6782173856183962,0.018975269483404632,-0.7185805363230414,0.15265362691619797,0.005859375,-0.001953125,0.00390625,-0.1279888153076172,0.051371097564697266,0.0041155219078063965
645,165000000,imu1_frame,0.6786112159013539,0.017484167038561545,-0.7179920442678244,0.15384585117566338,0.005859375,-0.001953125,0.00390625,-0.13434123992919922,0.013242959976196289,0.013463079929351807
645,190000000,imu1_frame,0.6783700471019494,0.018706539600361564,-0.7184199127692644,0.15276443796800912,0.001953125,0.005859375,0.001953125,-0.128692626953125,0.04560506343841553,0.008005678653717041
645,216000000,imu1_frame,0.6786044854292715,0.017336940512389508,-0.7179553656446366,0.15406322011115933,-0.005859375,0.0,-0.00390625,-0.1352987289428711,0.008302450180053711,0.013178825378417969
645,241000000,imu1_frame,0.6783242868730357,0.01920020965204077,-0.7185046288892641,0.15250774423682897,-0.005859375,0.0,-0.00390625,-0.09169578552246094,0.020956873893737793,0.007141053676605225
645,266000000,imu1_frame,0.6783803009871064,0.02097100156320807,-0.7187251173803931,0.15097877325180203,-0.005859375,0.0,-0.00390625,-0.11851787567138672,0.026967525482177734,0.009991705417633057
645,291000000,imu1_frame,0.6783429539694918,0.020120407397091217,-0.718648892175727,0.15162379688135733,0.0078125,-0.0078125,0.01171875,-0.12179088592529297,0.006451725959777832,0.008805036544799805
645,316000000,imu1_frame,0.6783608340005424,0.02115473614447574,-0.7188557714721764,0.15041753838528432,0.015625,-0.0078125,0.01171875,-0.11668777465820312,0.03709149360656738,0.009683549404144287
645,341000000,imu1_frame,0.6783484986499054,0.019081482988460702,-0.718583528297818,0.15204250802140606,0.015625,-0.0078125,0.01171875,-0.09082603454589844,0.06056976318359375,0.007704555988311768
645,366000000,imu1_frame,0.678397409252935,0.017208664824120787,-0.7182518419830675,0.15360699353156843,0.0078125,-0.00390625,0.0078125,-0.0996084213256836,0.013266324996948242,0.0076444149017333984
645,390000000,imu1_frame,0.6783385957955963,0.018721749250219473,-0.7185862530796554,0.15211851446819905,0.0078125,-0.00390625,0.0078125,-0.09200096130371094,0.019388675689697266,0.007147610187530518
645,416000000,imu1_frame,0.6783245578986884,0.018384097578871474,-0.7185485634828925,0.15240006897777714,0.0,-0.009765625,0.001953125,-0.09288311004638672,0.010809063911437988,0.0072054266929626465
645,441000000,imu1_frame,0.6783679801659072,0.019037232968394956,-0.7186378853438923,0.1517038463421192,0.005859375,0.0,0.0,-0.08959388732910156,0.02915477752685547,0.00865393877029419
645,466000000,imu1_frame,0.6791453372783739,0.017712539246566218,-0.7177295282935333,0.15268333577055798,0.005859375,0.0,0.0,-0.051918983459472656,0.030182957649230957,-0.007357239723205566
645,490000000,imu1_frame,0.6797921313496201,0.016662188146242405,-0.7169705095920841,0.15348719170206762,0.00390625,0.00390625,0.005859375,-0.05570220947265625,0.0025690793991088867,0.009213149547576904
645,515000000,imu1_frame,0.6791581748160831,0.017644672378698947,-0.7177118274365542,0.15271729396115322,0.0,0.00390625,0.00390625,-0.052008628845214844,0.028706908226013184,-0.006917178630828857
645,541000000,imu1_frame,0.6779187830654932,0.018995267439829162,-0.7190605908506973,0.15171410635579005,0.0,0.00390625,0.00390625,-0.09087467193603516,0.03000056743621826,-0.0037103891372680664
645,566000000,imu1_frame,0.678643002413796,0.018222715706442207,-0.7182705187763917,0.15231240843661997,0.0,0.00390625,0.00390625,-0.0930318832397461,0.008734703063964844,0.015141427516937256
645,591000000,imu1_frame,0.6776167917946845,0.019271083279725452,-0.7193936905508594,0.15144908987088507,0.005859375,0.00390625,0.001953125,-0.09009647369384766,0.03842771053314209,-0.011605679988861084
645,615000000,imu1_frame,0.678426635712158,0.01841395093158009,-0.7185281492003955,0.15203790702987874,0.00390625,0.001953125,0.0,-0.09241008758544922,0.01583874225616455,0.009324908256530762
645,641000000,imu1_frame,0.6777351141112676,0.01739484795577134,-0.718997728691653,0.1530189547128937,0.00390625,0.001953125,0.0,-0.055472373962402344,-0.009285569190979004,-0.009574592113494873
645,666000000,imu1_frame,0.678410976405369,0.018269193360553264,-0.718564607670281,0.15195291464899208,0.009765625,0.0,0.0,-0.04953575134277344,0.014973759651184082,0.008900821208953857
645,691000000,imu1_frame,0.6784368124911341,0.016494064607818236,-0.7182752210004586,0.15340190411570997,0.009765625,0.0,0.0,-0.10096549987792969,0.005843997001647949,0.008210599422454834
645,716000000,imu1_frame,0.6784088481855077,0.017618680036042594,-0.7185268300329181,0.15221764464163345,0.009765625,-0.001953125,-0.001953125,-0.09492301940917969,0.037483930587768555,0.008345067501068115
645,740000000,imu1_frame,0.6783991940358859,0.01610048741858199,-0.7183064463873216,0.15346386191792036,0.0078125,-0.005859375,0.00390625,-0.10226917266845703,-0.0003752708435058594,0.006935715675354004
645,765000000,imu1_frame,0.6785073317700068,0.014585238215156665,-0.7179756903527867,0.1546802496215741,0.0078125,-0.005859375,0.00390625,-0.1054391860961914,0.0008622407913208008,0.008886933326721191
645,790000000,imu1_frame,0.6783465987252615,0.016060253396024966,-0.7183628077078182,0.1534367516629081,-0.005859375,-0.009765625,0.001953125,-0.09848594665527344,0.03865766525268555,0.0055122971534729
645,816000000,imu1_frame,0.6785213215450833,0.01464896502254776,-0.7179650496417922,0.1546622498392566,0.0,-0.0078125,0.0,-0.10515785217285156,0.0019429922103881836,0.009328484535217285
645,840000000,imu1_frame,0.6783584387509763,0.016019243709010863,-0.7183553959378655,0.15342339304448246,0.0,-0.0078125,0.0,-0.0985422134399414,0.038220763206481934,0.005802810192108154
645,866000000,imu1_frame,0.6793633681264575,0.015485613808916481,-0.7173554456173777,0.1537100336865816,0.0,-0.0078125,0.0,-0.09894371032714844,0.023551344871520996,-0.002747178077697754
645,891000000,imu1_frame,0.6802860696460705,0.015319497705889168,-0.7164491517360149,0.15387264023303718,-0.005859375,0.025390625,-0.001953125,-0.09827518463134766,0.01597142219543457,0.021896302700042725
645,916000000,imu1_frame,0.6786907783000049,0.01558490704294045,-0.7179670013759254,0.1538158738825689,0.009765625,0.021484375,0.0,-0.1001291275024414,0.025784730911254883,-0.02072882652282715
645,941000000,imu1_frame,0.6785450523855953,0.017333165203812128,-0.7184174018174561,0.1521598174055914,0.009765625,0.021484375,0.0,-0.05245018005371094,-0.0013413429260253906,0.011679887771606445
645,965000000,imu1_frame,0.677722577814696,0.018485758245521157,-0.7193919795950018,0.15108131571003725,0.01171875,0.005859375,-0.001953125,-0.0481109619140625,0.03194129467010498,-0.009374260902404785
645,990000000,imu1_frame,0.6781185867777003,0.016683610975652196,-0.7187687076776054,0.15247420849078855,0.01171875,0.005859375,-0.001953125,-0.05954742431640625,0.060976624488830566,-8.881092071533203e-05
646,16000000,imu1_frame,0.6784016168739204,0.01509551165952965,-0.7182020791034439,0.1540426737046525,-0.009765625,0.005859375,-0.005859375,-0.06737232208251953,0.016857624053955078,0.006412982940673828
646,40000000,imu1_frame,0.6783269586108078,0.0147697644307878,-0.7181877921638024,0.1544690469555421,-0.0078125,0.001953125,-0.0078125,-0.06896114349365234,0.006754517555236816,0.0047190189361572266
646,66000000,imu1_frame,0.6789642484484593,0.016461592397664475,-0.7178737659388327,0.15295038895455695,-0.0078125,0.001953125,-0.0078125,-0.09914779663085938,-0.025483131408691406,-0.012987732887268066
646,91000000,imu1_frame,0.67953191658404,0.017874688829256875,-0.7175849252916725,0.15162039716681713,-0.00390625,-0.001953125,-0.00390625,-0.09127140045166016,0.010216355323791504,0.003022611141204834
646,116000000,imu1_frame,0.6798680216507945,0.018588551666380862,-0.7173727358678734,0.1510307806939481,-0.0078125,0.0,-0.0078125,-0.0869283676147461,0.02689194679260254,0.01297825574874878
646,141000000,imu1_frame,0.679172820479156,0.01739654199469062,-0.7177817128182722,0.1523517410228137,-0.0078125,0.0,-0.0078125,-0.0948629379272461,-0.0050688982009887695,-0.006843447685241699
646,166000000,imu1_frame,0.6797870046639323,0.018585181491771983,-0.7173964869747802,0.15128284699595274,-0.0078125,0.0,-0.0078125,-0.08808231353759766,0.023818492889404297,0.01043170690536499
646,191000000,imu1_frame,0.6794156658483718,0.017592121128157192,-0.7175813817685459,0.15219011404545993,0.00390625,0.001953125,-0.001953125,-0.09328746795654297,-0.001026153564453125,2.473592758178711e-05
646,216000000,imu1_frame,0.6797996543206777,0.018700537108851265,-0.7174188071247726,0.15110584065811633,0.0,-0.00390625,0.001953125,-0.08729743957519531,0.02775287628173828,0.01088404655456543
646,241000000,imu1_frame,0.6782610948362306,0.018179639016112643,-0.7187349812938315,0.15182692324274005,0.0,-0.00390625,0.001953125,-0.09272289276123047,0.01590287685394287,0.004806101322174072
646,266000000,imu1_frame,0.6785615705969041,0.018526651333767238,-0.7184733850729402,0.15168043064697034,-0.013671875,0.00390625,-0.01171875,-0.0904684066772461,0.021638870239257812,0.013517618179321289
646,291000000,imu1_frame,0.6790959936812393,0.02026138104251988,-0.7182257519859285,0.15023274273136267,-0.013671875,0.00390625,-0.01171875,-0.04327964782714844,-0.014468073844909668,-0.006761789321899414
646,316000000,imu1_frame,0.6796027764187669,0.021475158848770725,-0.7179735051000008,0.1489729163665085,0.00390625,0.001953125,-0.009765625,-0.0363922119140625,0.01769864559173584,0.007770121097564697
646,341000000,imu1_frame,0.6791427181309965,0.02015464817559024,-0.7181766584418301,0.15027057541610409,0.0,0.00390625,0.005859375,-0.043598175048828125,-0.016621112823486328,-0.005629181861877441
646,365000000,imu1_frame,0.6784767009668758,0.018524748874874913,-0.7185109792932604,0.15188210085216577,0.0,0.00390625,0.005859375,-0.048691749572753906,0.019306182861328125,0.010733544826507568
646,390000000,imu1_frame,0.6777594987692164,0.01724176756271221,-0.7189425855610541,0.153187277364017,0.0,0.005859375,0.001953125,-0.05652332305908203,-0.013709545135498047,-0.00927799940109253
646,415000000,imu1_frame,0.6783488360977288,0.018392867853824362,-0.7185802313625806,0.15214141471627124,-0.005859375,0.0,0.001953125,-0.04988384246826172,0.014422893524169922,0.007231712341308594
646,441000000,imu1_frame,0.6782823852280973,0.020226741518980372,-0.7189209646541165,0.15058728830018123,-0.005859375,0.0,0.001953125,-0.08448600769042969,0.022067546844482422,0.0067999958992004395
646,466000000,imu1_frame,0.6783562892480667,0.018531969452540993,-0.7185542282264376,0.15221409935913274,-0.005859375,0.0,0.001953125,-0.09270477294921875,0.015390872955322266,0.007481098175048828
646,490000000,imu1_frame,0.6784077157199851,0.018889340667992378,-0.7185336678029929,0.15203793044598726,-0.009765625,0.005859375,-0.009765625,-0.09069633483886719,0.02248358726501465,0.009633898735046387
646,516000000,imu1_frame,0.6782414464986601,0.018209191717322465,-0.7185606345104679,0.1527336901941431,-0.001953125,0.009765625,-0.009765625,-0.0944671630859375,0.004213094711303711,0.0047116875648498535
646,540000000,imu1_frame,0.6792028750969908,0.01938742637177623,-0.7178723757010005,0.1515481255709292,-0.001953125,0.009765625,-0.009765625,-0.048553466796875,-0.044646382331848145,-0.0436784029006958
646,566000000,imu1_frame,0.6802265540554556,0.020497269187526958,-0.7171514357108749,0.15021822583004218,0.009765625,0.009765625,-0.009765625,-0.041007041931152344,-0.014713644981384277,-0.015599489212036133
646,591000000,imu1_frame,0.6811497592710742,0.01978733503709994,-0.7162200397679284,0.15057330922814283,0.009765625,0.009765625,-0.009765625,-0.03825187683105469,0.00655210018157959,0.00865161418914795
646,616000000,imu1_frame,0.6804241388228219,0.019775350774163123,-0.7169403149412502,0.15042776213492204,0.01953125,0.01953125,-0.01171875,-0.03878593444824219,0.010709762573242188,-0.010542690753936768
646,640000000,imu1_frame,0.6813623999440314,0.01952055243679805,-0.7161157966976363,0.15014124581600377,0.025390625,0.017578125,-0.013671875,-0.03746318817138672,0.007879137992858887,0.014252245426177979
646,665000000,imu1_frame,0.6803959645100448,0.01843030368339245,-0.716899799652323,0.15091829790665837,0.025390625,0.017578125,-0.013671875,-0.0867156982421875,0.05966770648956299,0.06168705224990845
646,691000000,imu1_frame,0.6792467009549977,0.017578494593008184,-0.7178024786750516,0.15190298673017394,0.0,0.013671875,-0.021484375,-0.09301185607910156,0.03835761547088623,0.030540943145751953
646,716000000,imu1_frame,0.678075450684939,0.016534126218100437,-0.7186648958289339,0.15317007981916092,-0.005859375,0.013671875,-0.013671875,-0.1007394790649414,0.010671854019165039,-0.001260221004486084
646,741000000,imu1_frame,0.6790177102746837,0.01801124974552202,-0.7180327450076089,0.15178775020655674,-0.005859375,0.013671875,-0.013671875,-0.08816242218017578,-0.06653439998626709,-0.04959207773208618
646,766000000,imu1_frame,0.6801451351026888,0.019139226543903893,-0.7171670666207818,0.15069068902221408,-0.005859375,0.013671875,-0.013671875,-0.08483505249023438,-0.039783358573913574,-0.05789858102798462
646,791000000,imu1_frame,0.6811312018729887,0.019694539827581434,-0.7164437862524221,0.14960184516352498,0.025390625,-0.005859375,0.01171875,-0.07941055297851562,-0.020687460899353027,-0.031225621700286865
646,815000000,imu1_frame,0.6819635280165939,0.020427196254585937,-0.7158339219987762,0.14862796582133223,0.009765625,-0.005859375,0.00390625,-0.07411479949951172,-0.0001252889633178711,-0.008458971977233887
646,841000000,imu1_frame,0.6808107209634912,0.019096961356293126,-0.7167113097357369,0.1498564872970537,0.009765625,-0.005859375,0.00390625,-0.08184242248535156,0.08184647560119629,0.07321184873580933
646,866000000,imu1_frame,0.6795201174888721,0.018273312136998402,-0.7176123899858893,0.15149572182142018,-0.04296875,-0.01171875,0.001953125,-0.08978748321533203,0.052637338638305664,0.03828650712966919
646,890000000,imu1_frame,0.6804246678290329,0.0190593568540247,-0.7167819887521722,0.15126993398075417,-0.04296875,-0.01171875,0.001953125,-0.04691028594970703,-0.010526776313781738,-0.05044412612915039
646,915000000,imu1_frame,0.6814925015418501,0.019568900152323924,-0.7158178046814991,0.15096323721363047,-0.01953125,0.001953125,0.009765625,-0.04327583312988281,-0.0028513669967651367,-0.021511197090148926
646,940000000,imu1_frame,0.6823576780152217,0.019990772905813452,-0.715059672320028,0.15059227494754568,-0.009765625,-0.00390625,0.009765625,-0.040042877197265625,0.005124926567077637,0.0020130276679992676
646,965000000,imu1_frame,0.6809965706061493,0.02074913713882135,-0.716400031950453,0.1502801994676886,-0.009765625,-0.00390625,0.009765625,-0.07445907592773438,-0.014599919319152832,0.04429513216018677
646,990000000,imu1_frame,0.6795425506039723,0.021782786702315825,-0.7178472223190279,0.14980920375926673,-0.015625,-0.005859375,0.0,-0.07277584075927734,0.01102137565612793,0.006471395492553711
647,16000000,imu1_frame,0.6794482484530827,0.022131105690834818,-0.7179691525302443,0.14960142997291778,-0.005859375,0.001953125,-0.0078125,-0.07091712951660156,0.018887042999267578,0.004859626293182373
647,40000000,imu1_frame,0.6794862017737987,0.02050724715216961,-0.7176537796025053,0.1511654955189671,-0.005859375,0.001953125,-0.0078125,-0.040345191955566406,0.05333542823791504,0.0038445591926574707
647,66000000,imu1_frame,0.6795433354234584,0.01883010877014872,-0.7173034818242525,0.15278087985107888,-0.005859375,0.001953125,-0.0078125,-0.04858112335205078,0.008057475090026855,0.004050731658935547
647,90000000,imu1_frame,0.6794655386666253,0.019188735282851564,-0.7173806270700764,0.1527200383291642,-0.017578125,-0.001953125,-0.013671875,-0.04703044891357422,0.014051079750061035,0.002785623073577881
647,115000000,imu1_frame,0.6795926411106583,0.018877854558875775,-0.7171520782166975,0.15326566955768617,-0.017578125,0.00390625,-0.01171875,-0.049007415771484375,0.001978278160095215,0.005934536457061768
647,141000000,imu1_frame,0.6794765775687204,0.02104859955030992,-0.7175553686966086,0.15160088999456253,-0.017578125,0.00390625,-0.01171875,-0.039997100830078125,-0.06205487251281738,0.004038751125335693
647,165000000,imu1_frame,0.6793945577877061,0.022776738949613923,-0.7179146869747135,0.1500091905093404,0.001953125,0.001953125,-0.001953125,-0.03197765350341797,-0.01627182960510254,0.0033272504806518555
647,191000000,imu1_frame,0.6795959627698975,0.021008139968726157,-0.7174518642640684,0.15156123483900308,0.001953125,0.001953125,-0.001953125,-0.08284378051757812,0.0156404972076416,0.007137954235076904
647,216000000,imu1_frame,0.6795465264225792,0.021004287778818128,-0.7174529644127079,0.151778068828567,-0.01171875,0.00390625,0.001953125,-0.08278274536132812,0.012734413146972656,0.006445586681365967
647,241000000,imu1_frame,0.679606757813304,0.021371343305592205,-0.7173819082792929,0.15179301068680243,-0.01953125,0.009765625,0.009765625,-0.08177375793457031,0.01747310161590576,0.008362948894500732
647,266000000,imu1_frame,0.6794315634857746,0.02328727507401039,-0.7177746981624443,0.15043249661132066,-0.01953125,0.009765625,0.009765625,-0.03162097930908203,-0.014903068542480469,0.0047765374183654785
647,290000000,imu1_frame,0.679220543137537,0.024622139916680635,-0.7181860397847235,0.14920461207418598,0.00390625,0.001953125,0.01171875,-0.025844573974609375,0.02095651626586914,0.00036782026290893555
647,316000000,imu1_frame,0.679419667557958,0.023212698472254562,-0.7177787130749128,0.1504785865882319,0.0,0.0,0.013671875,-0.031833648681640625,-0.01654183864593506,0.0044855475425720215
647,340000000,imu1_frame,0.6796601830880928,0.02152542737955482,-0.7172835032145746,0.1519969325908097,0.0,0.0,0.013671875,-0.11762714385986328,0.016846656799316406,0.009268403053283691
647,365000000,imu1_frame,0.6796525733791724,0.021894946569885797,-0.7173470589116603,0.15167790836031989,0.0,0.0,0.013671875,-0.11533355712890625,0.02620995044708252,0.009939730167388916
647,391000000,imu1_frame,0.6796353811107042,0.02109062681811226,-0.717201430144361,0.15255504843108386,-0.005859375,0.005859375,0.017578125,-0.1195058822631836,0.00326383113861084,0.008832454681396484
647,415000000,imu1_frame,0.6796243253343242,0.022367025714434306,-0.7174102865196997,0.15143636739659502,-0.001953125,0.0,0.01171875,-0.11422157287597656,0.03626132011413574,0.009007275104522705
647,440000000,imu1_frame,0.6792798460043111,0.023713869923456542,-0.7179303501721341,0.15030820166354666,-0.001953125,0.0,0.01171875,-0.06961631774902344,0.03232550621032715,0.0010744333267211914
647,466000000,imu1_frame,0.6795741371801667,0.022459821019209146,-0.7174444357437322,0.15148607241583148,-0.005859375,-0.005859375,-0.001953125,-0.07501220703125,-0.002014756202697754,0.007851183414459229
647,490000000,imu1_frame,0.67947784477883,0.021013797803215467,-0.7172805969334451,0.15289481357914766,-0.005859375,-0.005859375,-0.001953125,-0.08623027801513672,-0.0017092227935791016,0.0039861202239990234
647,516000000,imu1_frame,0.679567902837878,0.02229277700086036,-0.7174121472247889,0.15169149132511203,0.0,-0.0078125,0.001953125,-0.07979202270507812,0.031972408294677734,0.007584750652313232
647,541000000,imu1_frame,0.679453512411846,0.020951674696184898,-0.7172904230117281,0.1529653583471981,-0.00390625,-0.0078125,-0.0078125,-0.08661842346191406,-0.0034366846084594727,0.003269374370574951
647,566000000,imu1_frame,0.679565350734695,0.02233701328221508,-0.717408483267913,0.1517137437864269,-0.00390625,-0.0078125,-0.0078125,-0.0798492431640625,0.032323479652404785,0.007447242736816406
647,591000000,imu1_frame,0.6794753983923417,0.021000815717201426,-0.717249432186975,0.15305358782544853,-0.0078125,-0.005859375,-0.00390625,-0.086669921875,-0.004002094268798828,0.0038930773735046387
647,616000000,imu1_frame,0.6795935047200466,0.022349772086802527,-0.7173799866844028,0.15172050202486756,0.00390625,-0.00390625,-0.005859375,-0.07983684539794922,0.03232443332672119,0.008165597915649414
647,640000000,imu1_frame,0.6794880954629808,0.0209601945221593,-0.7172656717016833,0.1529266313237075,0.00390625,-0.00390625,-0.005859375,-0.08644485473632812,-0.002917766571044922,0.00420224666595459
647,666000000,imu1_frame,0.6779193063082211,0.021767978212696253,-0.7188444877201094,0.15236197600951923,0.00390625,-0.00390625,-0.005859375,-0.08519935607910156,0.021225333213806152,-0.0014548301696777344
647,691000000,imu1_frame,0.6785010804445464,0.02142093504489601,-0.718279390640289,0.15248653828715705,0.00390625,-0.005859375,-0.01171875,-0.0851297378540039,0.012661337852478027,0.014024615287780762
647,715000000,imu1_frame,0.6772802105009067,0.021830885265814462,-0.7194597525034642,0.1522911469521872,0.0,-0.005859375,-0.00390625,-0.08598899841308594,0.025233149528503418,-0.01843726634979248
647,741000000,imu1_frame,0.6780929232365898,0.0206919749086378,-0.7185408975806173,0.15316921405712552,0.0,-0.005859375,-0.00390625,-0.12497711181640625,0.03385770320892334,0.0021036267280578613
647,765000000,imu1_frame,0.6785766079822657,0.020067626561143623,-0.7179556451245843,0.15385307633332165,-0.013671875,-0.0078125,0.00390625,-0.12722206115722656,0.014280319213867188,0.01474010944366455
647,791000000,imu1_frame,0.6782758065699065,0.022041923100680913,-0.7185086736198699,0.15231995857727174,-0.013671875,-0.0078125,0.00390625,-0.08391189575195312,-0.0536876916885376,0.008167028427124023
647,816000000,imu1_frame,0.6780743179008188,0.023775123411668445,-0.7189808288975522,0.150720040432213,0.001953125,-0.009765625,0.00390625,-0.07608318328857422,-0.0073168277740478516,0.004360973834991455
647,841000000,imu1_frame,0.6780673581446593,0.024835886161281684,-0.7192369827606442,0.14935193070955227,0.0234375,-0.013671875,0.013671875,-0.07039451599121094,0.025880813598632812,0.005120456218719482
647,865000000,imu1_frame,0.6780452909772658,0.022742208082716545,-0.7190094207609916,0.1508735504056975,0.0234375,-0.013671875,0.013671875,-0.03610801696777344,0.09341585636138916,0.0026619434356689453
647,890000000,imu1_frame,0.6780169049398169,0.02075578354660958,-0.718755213376793,0.15249005642624164,0.009765625,-0.015625,0.0078125,-0.04509162902832031,0.04405641555786133,0.00020891427993774414
647,915000000,imu1_frame,0.6781391819704157,0.019028233164190743,-0.7183847302873942,0.1539108687164509,0.005859375,-0.013671875,0.005859375,-0.05294609069824219,0.0004564523696899414,0.002068638801574707
647,941000000,imu1_frame,0.6774874126465686,0.020709227685068037,-0.7192834626463227,0.15235889851814452,0.005859375,-0.013671875,0.005859375,-0.08864784240722656,-0.07026469707489014,0.025249004364013672
647,965000000,imu1_frame,0.6776727935028904,0.022200493067428946,-0.7193818837812853,0.15085233952723803,0.005859375,-0.013671875,0.005859375,-0.038055419921875,-0.029837369918823242,-0.007721662521362305
647,990000000,imu1_frame,0.6779982174705145,0.02345697118195006,-0.7193706005777946,0.1492451896515166,0.0234375,-0.009765625,-0.001953125,-0.03069019317626953,0.0081709623336792,0.0019956231117248535
648,16000000,imu1_frame,0.6779490814982408,0.022797180021898258,-0.7194189686970814,0.14933746669060785,0.02734375,-0.01953125,0.00390625,-0.031876564025878906,-0.0022939443588256836,0.0007966756820678711
648,41000000,imu1_frame,0.6778932075025209,0.020655352115666253,-0.7192319286017597,0.15079651365570504,0.02734375,-0.01953125,0.00390625,-0.0024194717407226562,0.10080134868621826,-0.0031386613845825195
648,66000000,imu1_frame,0.6780526570186036,0.01876399446904606,-0.7187721059502041,0.15250956209197486,0.0,0.001953125,0.01171875,-0.011234283447265625,0.05087018013000488,-0.0003833770751953125
648,91000000,imu1_frame,0.6773335920037679,0.020312372740583628,-0.7196748225927221,0.15124404908311223,0.0,0.001953125,0.01171875,-0.08333873748779297,-0.021409273147583008,0.020863711833953857
648,115000000,imu1_frame,0.6766230696505612,0.021863234507593587,-0.7205803863791094,0.14989038447896194,0.00390625,-0.001953125,0.00390625,-0.07738113403320312,0.020804166793823242,0.0033101439476013184
648,141000000,imu1_frame,0.6770132794883749,0.021173311806829624,-0.7201376301403627,0.15035459394161785,0.005859375,0.001953125,-0.00390625,-0.0790567398071289,0.0035254955291748047,0.013537466526031494
648,165000000,imu1_frame,0.6781502080516656,0.02136350970978005,-0.7191545813300806,0.1499085852255266,0.005859375,0.001953125,-0.00390625,-0.07616329193115234,0.00844275951385498,-0.03082871437072754
648,190000000,imu1_frame,0.6791619355559539,0.021447751157989463,-0.7183063637997671,0.14938215083105374,0.015625,-0.0078125,-0.0078125,-0.07303333282470703,0.013270854949951172,-0.0037811994552612305
648,216000000,imu1_frame,0.6798637457250252,0.021322217591198057,-0.7176955093510771,0.149143575600929,0.013671875,-0.001953125,-0.001953125,-0.07140922546386719,0.012312650680541992,0.01509183645248413
648,240000000,imu1_frame,0.6785181381329003,0.021081963319013346,-0.7189309956945733,0.1493549814264241,0.013671875,-0.001953125,-0.001953125,-0.039839744567871094,0.010654926300048828,0.05292677879333496
648,265000000,imu1_frame,0.6772188677654782,0.02134768261547794,-0.7202023610468524,0.14908870088618936,0.013671875,-0.001953125,-0.001953125,-0.07593917846679688,0.02226877212524414,-0.020513951778411865
648,290000000,imu1_frame,0.6782078999371222,0.02103092136744945,-0.719296819288795,0.14900949825543797,0.01171875,-0.001953125,-0.009765625,-0.07464122772216797,0.015546679496765137,0.005740761756896973
648,316000000,imu1_frame,0.678171338333261,0.02053859819962747,-0.71933035846408,0.14908265237513707,0.01953125,-0.015625,-0.001953125,-0.07566165924072266,0.007694602012634277,0.004796326160430908
648,341000000,imu1_frame,0.6781179013545244,0.018527499429642463,-0.7191291296006429,0.15055277675035422,0.01953125,-0.015625,-0.001953125,-0.046050071716308594,0.0734180212020874,0.0011837482452392578
648,366000000,imu1_frame,0.6782939154170812,0.01676888388599411,-0.7187041012958891,0.15198876149851417,0.0078125,0.001953125,-0.0078125,-0.05393695831298828,0.029004573822021484,0.0046179890632629395
648,391000000,imu1_frame,0.6783636695752603,0.01857738634866945,-0.7189693863894956,0.15020197718922143,0.0078125,0.001953125,-0.0078125,-0.12673377990722656,-0.03529024124145508,0.007729232311248779
648,415000000,imu1_frame,0.6782551707341218,0.020292182922752245,-0.7193553371284586,0.148613759892746,0.0,-0.013671875,-0.005859375,-0.11874961853027344,0.01033937931060791,0.006142735481262207
648,441000000,imu1_frame,0.6784027018181829,0.021054353147275526,-0.7194238343172548,0.1474985931987113,0.01953125,-0.01953125,-0.005859375,-0.11358833312988281,0.03537118434906006,0.011067628860473633
648,466000000,imu1_frame,0.6776139893569418,0.019231482535529892,-0.7199295483818303,0.14889888137252716,0.01953125,-0.01953125,-0.005859375,-0.1191568374633789,0.07183897495269775,0.027459263801574707
648,491000000,imu1_frame,0.6770542038855394,0.017501825253463273,-0.7202108185257562,0.15029194253909978,0.013671875,-0.005859375,-0.01953125,-0.12789630889892578,0.03079211711883545,0.011368095874786377
648,515000000,imu1_frame,0.6767442344124568,0.01912207610157944,-0.7208079727574281,0.14861848406032818,0.013671875,-0.005859375,-0.01953125,-0.0851297378540039,0.037821412086486816,0.004269897937774658
648,541000000,imu1_frame,0.6766377483517924,0.020169276895693426,-0.7211276145007519,0.14740936666092894,0.013671875,-0.005859375,-0.01953125,-0.04036521911621094,0.029870033264160156,0.0026387572288513184
648,565000000,imu1_frame,0.6774907013210624,0.019171592355259306,-0.7202483029990214,0.14792289105168518,0.013671875,-0.005859375,-0.01953125,-0.08217716217041016,0.045358896255493164,-0.015029728412628174
648,591000000,imu1_frame,0.6782094808174315,0.018054369073321624,-0.7194451794025315,0.14867606976636585,0.005859375,-0.013671875,-0.00390625,-0.08555984497070312,0.01726365089416504,0.003306865692138672
648,615000000,imu1_frame,0.6769810161578866,0.019055275104820645,-0.7207495445185886,0.14782995071622515,0.005859375,-0.013671875,-0.00390625,-0.07903194427490234,-0.031540513038635254,0.04965740442276001
648,641000000,imu1_frame,0.675265206247946,0.01922461347444346,-0.7223583212446382,0.14780315015690784,0.005859375,-0.013671875,-0.00390625,-0.08538818359375,0.015822768211364746,0.004438638687133789
648,666000000,imu1_frame,0.6754470996219194,0.01918862051197706,-0.7222380527674161,0.14756424902365528,0.009765625,-0.01953125,-0.01953125,-0.0840902328491211,0.01780879497528076,0.009689629077911377
648,690000000,imu1_frame,0.6762471281834187,0.018735938691325695,-0.7214908333449022,0.14761356178993965,0.009765625,-0.01953125,-0.01953125,-0.006298065185546875,0.008265495300292969,-0.009000301361083984
648,715000000,imu1_frame,0.6767613045747412,0.018168269939338316,-0.7210217120347951,0.14762026071010317,0.021484375,-0.01953125,-0.013671875,-0.006600379943847656,-0.001530289649963379,0.004457592964172363
648,741000000,imu1_frame,0.6759703225498019,0.018524424941825938,-0.7218721858427091,0.14704256533113313,0.017578125,-0.01953125,-0.017578125,-0.00556182861328125,0.013690590858459473,-0.01608067750930786
648,766000000,imu1_frame,0.6751870161432663,0.016746345185340326,-0.7223695416178284,0.1484058573552078,0.017578125,-0.01953125,-0.017578125,-0.08946990966796875,0.012179017066955566,0.0005677938461303711
648,791000000,imu1_frame,0.6758310570072807,0.017163484897090478,-0.7218841603607886,0.14778719900860252,0.0078125,0.005859375,-0.01953125,-0.08531570434570312,0.02412700653076172,0.018290221691131592
648,815000000,imu1_frame,0.6746002248793498,0.016058795927981324,-0.7228760439214933,0.1486838148235555,0.017578125,0.001953125,-0.021484375,-0.09302425384521484,0.000674128532409668,-0.015394449234008789
648,840000000,imu1_frame,0.6742790857243747,0.01789356172528313,-0.7235229111430946,0.14677238178385799,0.017578125,0.001953125,-0.021484375,-0.08433151245117188,-0.025180339813232422,0.01645749807357788
648,865000000,imu1_frame,0.6736071248584311,0.01898095510379819,-0.72436007255334,0.1455872589680341,0.017578125,0.001953125,-0.021484375,-0.11919879913330078,0.04710495471954346,-0.0004668235778808594
648,890000000,imu1_frame,0.6740856011708602,0.01768021480595245,-0.7238278179733354,0.14618242789916763,0.025390625,-0.01953125,-0.021484375,-0.1230316162109375,0.019316911697387695,0.011114418506622314
648,915000000,imu1_frame,0.6750222658331827,0.0175089896605517,-0.7230581949915098,0.14568878668628674,0.025390625,-0.01953125,-0.021484375,-0.08513832092285156,0.02041614055633545,-0.003089010715484619
648,941000000,imu1_frame,0.6754254828507342,0.016500051101256352,-0.7226394358589879,0.14601510596822637,0.025390625,-0.01953125,-0.021484375,-0.044640541076660156,0.0005413293838500977,0.007003068923950195
648,966000000,imu1_frame,0.6749155361850524,0.017272686580902714,-0.7233016105697063,0.14500156365222447,0.021484375,-0.013671875,-0.005859375,-0.04131317138671875,0.02651846408843994,-0.006011486053466797
648,991000000,imu1_frame,0.6754228033043265,0.016047836212631297,-0.7227300064538211,0.14562912311992246,0.021484375,-0.013671875,-0.005859375,-0.045131683349609375,-0.0006722211837768555,0.006423532962799072
649,15000000,imu1_frame,0.6750611837431781,0.016963280204381793,-0.7232305718870234,0.14471415001973958,0.0078125,-0.0078125,-0.001953125,-0.04128265380859375,0.025520920753479004,-0.0024864673614501953
649,41000000,imu1_frame,0.6754185689039927,0.015734411267980815,-0.7227649171998505,0.14550965447978365,0.01171875,-0.013671875,-0.01171875,-0.045624732971191406,-0.003506302833557129,0.006148815155029297
649,66000000,imu1_frame,0.6740524377907018,0.016599120341242234,-0.7241822285903194,0.1446992747261286,0.01171875,-0.013671875,-0.01171875,-0.08707427978515625,-0.01531994342803955,0.048736572265625
649,91000000,imu1_frame,0.6725862285193629,0.01764395689972474,-0.7256870819172349,0.14385657833226975,0.00390625,-0.013671875,-0.01953125,-0.08539104461669922,0.015217781066894531,0.01083064079284668
649,115000000,imu1_frame,0.672164723464855,0.017581735786193774,-0.7261099317905857,0.14370050122122197,0.013671875,-0.01171875,-0.021484375,-0.08561325073242188,0.017642617225646973,0.00010472536087036133
649,141000000,imu1_frame,0.6732653688512875,0.017733757363854165,-0.7252053719705183,0.14309586094783416,0.013671875,-0.01171875,-0.021484375,-0.12099742889404297,0.024396657943725586,-0.010142385959625244
649,165000000,imu1_frame,0.6741275897815707,0.01675508194730308,-0.7243341000989324,0.14356660948179814,0.013671875,-0.01171875,-0.021484375,-0.16222190856933594,0.0798027515411377,-0.02745199203491211
649,190000000,imu1_frame,0.6749880494776459,0.015925106505759765,-0.7233194958895675,0.1447288185234911,-0.033203125,-0.001953125,0.009765625,-0.16540145874023438,0.04998815059661865,-0.0052980780601501465
649,215000000,imu1_frame,0.6750452589948311,0.014394909255454913,-0.7229115159403442,0.1466479628803686,-0.033203125,-0.001953125,0.009765625,0.02550506591796875,0.0027440786361694336,-0.004648327827453613
649,240000000,imu1_frame,0.6750421518235977,0.016394830090319137,-0.7231248825075589,0.14539500371782205,-0.033203125,-0.001953125,0.009765625,-0.009349822998046875,-0.030512094497680664,-0.0035172104835510254
649,266000000,imu1_frame,0.6754549854589418,0.018184105929615033,-0.7229000885594788,0.14437923282418005,-0.03125,0.033203125,0.0234375,-0.0018014907836914062,0.006944775581359863,0.008551418781280518
649,291000000,imu1_frame,0.6747721579130996,0.01974430524649011,-0.7236292039941239,0.14371316029669257,-0.03125,0.033203125,0.0234375,-0.11474418640136719,-0.07331812381744385,0.06993228197097778
649,316000000,imu1_frame,0.6739808307516212,0.02135875699621647,-0.7244942580999537,0.142834566051529,-0.0234375,0.025390625,0.00390625,-0.11037445068359375,-0.03632235527038574,0.050364911556243896
649,340000000,imu1_frame,0.6728764440677159,0.022840843726049123,-0.7256545684897642,0.141919111139419,-0.017578125,-0.00390625,-0.005859375,-0.10702991485595703,0.0003104209899902344,0.022563636302947998
649,366000000,imu1_frame,0.6734424466506466,0.02149966427210309,-0.7248947011068163,0.1433202979086955,-0.017578125,-0.00390625,-0.005859375,-0.06928634643554688,0.03518998622894287,-0.0028759241104125977
649,391000000,imu1_frame,0.6738910686952289,0.020298928841382947,-0.724318536599541,0.14429635670727892,0.0,-0.01171875,-0.00390625,-0.073486328125,0.0038319826126098633,0.007966160774230957
649,416000000,imu1_frame,0.6740478975463949,0.01886861968519101,-0.7239660294188544,0.14552180335591855,0.0,-0.01171875,-0.00390625,-0.12248706817626953,0.00592958927154541,0.010980308055877686
649,441000000,imu1_frame,0.6738648816601843,0.020706489154783608,-0.7244188222304478,0.14385663895086467,0.0,-0.01171875,-0.00390625,-0.11058425903320312,-0.01965475082397461,0.007643520832061768
649,466000000,imu1_frame,0.6739303269782806,0.0223917846139859,-0.7246170075194551,0.14229095113287613,0.0,-0.01171875,-0.00390625,-0.14209461212158203,0.02474391460418701,0.010750770568847656
649,491000000,imu1_frame,0.6741194313727603,0.02210710065252213,-0.7245071547700214,0.14199877123923973,0.02734375,-0.017578125,-0.01953125,-0.1411428451538086,0.02388477325439453,0.01607656478881836
649,515000000,imu1_frame,0.6736587444413824,0.020258613403110307,-0.7247471235027926,0.14323090307287548,0.02734375,-0.017578125,-0.01953125,-0.036452293395996094,0.01810622215270996,0.001869797706604004
649,541000000,imu1_frame,0.6725196455072584,0.01863755136759191,-0.7256329320412697,0.14431498890621855,0.02734375,-0.017578125,-0.01953125,-0.041131019592285156,0.02345561981201172,0.00977236032485962
649,566000000,imu1_frame,0.6720199924404417,0.017134489584054884,-0.7259244884270751,0.14535878414781805,0.01953125,-0.005859375,-0.029296875,-0.048392295837402344,-0.010048627853393555,-0.004514634609222412
649,590000000,imu1_frame,0.6715238542613636,0.01890093138722723,-0.7267112314656702,0.14348956063877039,0.01953125,-0.005859375,-0.029296875,-0.15788745880126953,0.0021774768829345703,0.022832751274108887
649,615000000,imu1_frame,0.6708333616975978,0.020626682310084955,-0.7276506862939744,0.1417096310992543,0.015625,-0.017578125,-0.0234375,-0.15130138397216797,0.052355051040649414,0.006005644798278809
649,641000000,imu1_frame,0.6711898891502116,0.019452883706134034,-0.7271505096706085,0.1427510220762596,-0.0078125,-0.01953125,-0.01953125,-0.15570735931396484,0.020829081535339355,0.014383316040039062
649,666000000,imu1_frame,0.6721388149857032,0.020038961364228555,-0.726379703632834,0.1421280393424673,-0.0078125,-0.01953125,-0.01953125,-0.033593177795410156,-0.0007905960083007812,-0.03821134567260742
649,690000000,imu1_frame,0.6729218561314432,0.02020416238971018,-0.7257378769404977,0.1416774552871507,0.005859375,-0.03125,-0.009765625,-0.030603408813476562,0.005047440528869629,-0.01746237277984619
649,716000000,imu1_frame,0.6733871078725624,0.018748641598639485,-0.7251420238175148,0.14271417828327512,0.005859375,-0.03125,-0.009765625,-0.11772346496582031,0.04349720478057861,-0.006506800651550293
649,741000000,imu1_frame,0.6739323239233023,0.01960213255428504,-0.7248178861979879,0.14166866632442765,0.005859375,-0.03125,-0.009765625,-0.1511850357055664,0.02863335609436035,0.008642196655273438
649,766000000,imu1_frame,0.672661761745676,0.018152619883629022,-0.7257801659335785,0.14296778453200848,0.005859375,-0.03125,-0.009765625,-0.11715126037597656,0.0339428186416626,0.013159871101379395
649,791000000,imu1_frame,0.6724007768996036,0.01666409111026983,-0.725764009901002,0.14445104784907703,-0.0078125,-0.017578125,0.01953125,-0.12488746643066406,-0.005921363830566406,0.005152344703674316
649,815000000,imu1_frame,0.6715586978124639,0.018138837186950748,-0.7267231624023487,0.14336437216359785,-0.0078125,-0.017578125,0.01953125,-0.08127212524414062,-0.04225802421569824,0.023214995861053467
649,841000000,imu1_frame,0.6711521579715559,0.01992466410460381,-0.7273307730079519,0.14194271818623702,-0.0078125,-0.017578125,0.01953125,-0.11762428283691406,-0.07498288154602051,0.01384580135345459
649,865000000,imu1_frame,0.6713422342036619,0.021660230603674793,-0.727425392221877,0.14029518072791977,0.009765625,0.033203125,0.0,-0.10957813262939453,-0.029172182083129883,0.02022916078567505
649,890000000,imu1_frame,0.6721418573765228,0.023231414916252264,-0.7269440971808669,0.13870077323981042,0.009765625,0.033203125,0.0,-0.10099315643310547,-0.027350306510925293,0.003502786159515381
649,915000000,imu1_frame,0.6726033024952563,0.024908592715477088,-0.7268449277273638,0.13667776160887568,0.029296875,0.02734375,-0.02734375,-0.09217548370361328,0.021779298782348633,0.0172121524810791
649,940000000,imu1_frame,0.6715830865405639,0.0234854066407686,-0.7277514480949251,0.13712192874703472,0.056640625,0.0,-0.03125,-0.09838008880615234,-0.0011278390884399414,-0.010950267314910889
649,966000000,imu1_frame,0.6715654856233876,0.021297231084348868,-0.7276552110093284,0.13807288060489412,0.056640625,0.0,-0.03125,-0.10138130187988281,0.14666271209716797,0.025803446769714355
649,990000000,imu1_frame,0.6713079196071934,0.019242860251344678,-0.7277160630897077,0.13930082886769077,0.037109375,-0.021484375,-0.009765625,-0.10933303833007812,0.10204744338989258,0.017411351203918457
650,15000000,imu1_frame,0.6716056825435844,0.01722338357843111,-0.7272828907446536,0.14038788787988973,0.037109375,-0.021484375,-0.009765625,-0.11595630645751953,0.1362248659133911,-0.01531064510345459
650,41000000,imu1_frame,0.6722786920497322,0.018001992413883804,-0.7269302949786142,0.13888712945171314,0.037109375,-0.021484375,-0.009765625,-0.07027149200439453,0.0126875638961792,0.002978026866912842
650,66000000,imu1_frame,0.672161599722273,0.019515333585307666,-0.7273821370798476,0.1368691428737787,0.037109375,-0.021484375,-0.009765625,-0.06273078918457031,-0.016917824745178223,0.0009447932243347168
650,91000000,imu1_frame,0.6721735077901129,0.021237785671178996,-0.7276464922610606,0.1351381300192303,0.00390625,-0.0234375,-0.037109375,-0.055253028869628906,0.030402421951293945,0.0025805234909057617
650,115000000,imu1_frame,0.6730314309116635,0.021135850053930323,-0.7268932435036858,0.13493769449708287,0.00390625,-0.0234375,-0.037109375,-0.09223747253417969,0.028991103172302246,-0.013881564140319824
650,141000000,imu1_frame,0.6712762808063483,0.020251948750085517,-0.7283815913909234,0.1357875941367488,0.00390625,-0.0234375,-0.037109375,-0.1426830291748047,0.010509610176086426,-0.02172142267227173
650,166000000,imu1_frame,0.6722289655191971,0.02042165107188978,-0.7276771601608139,0.13482256734234552,0.037109375,-0.017578125,-0.01953125,-0.1381244659423828,0.02276790142059326,0.0036031007766723633
650,190000000,imu1_frame,0.6715305687935432,0.018603246527915056,-0.7281707067388344,0.13589715317808698,0.037109375,-0.017578125,-0.01953125,-0.02892780303955078,0.06296300888061523,0.02281033992767334
650,215000000,imu1_frame,0.6703081501427717,0.017173417156801155,-0.7291872217785782,0.13666767426927529,0.037109375,-0.017578125,-0.01953125,-0.07167816162109375,0.03609967231750488,0.024927258491516113
650,241000000,imu1_frame,0.6691244642946562,0.01559328701760096,-0.7300344811375243,0.13812659784647402,0.00390625,-0.013671875,-0.009765625,-0.08128643035888672,-0.0020775794982910156,-0.007114768028259277
650,265000000,imu1_frame,0.6698968890655737,0.016683709705115884,-0.7295269238317909,0.136931659068553,0.00390625,-0.013671875,-0.009765625,-0.15649032592773438,-0.012166857719421387,-0.02145981788635254
650,291000000,imu1_frame,0.6707621921503629,0.017605994903799486,-0.7289250300383567,0.13578074645791147,0.009765625,-0.01171875,-0.00390625,-0.14988040924072266,0.013537406921386719,0.0019180774688720703
650,316000000,imu1_frame,0.6690343595525049,0.017338425443983098,-0.7304639856255366,0.13606899149089335,0.009765625,-0.01171875,-0.00390625,-0.07289409637451172,0.01105344295501709,-0.00830543041229248
650,341000000,imu1_frame,0.6672079157332214,0.017260675642972734,-0.7321099784493388,0.1362007551894895,0.009765625,-0.01171875,-0.00390625,-0.0776824951171875,0.013640284538269043,-0.017014741897583008
650,366000000,imu1_frame,0.6682919507864578,0.01708334898781145,-0.7311603619732212,0.13600938489890896,0.009765625,-0.01171875,-0.00390625,-0.03988456726074219,0.010388374328613281,-0.02783346176147461
650,391000000,imu1_frame,0.669293626078683,0.01692891886902727,-0.7302701670737897,0.13588574935729342,0.005859375,-0.0078125,-0.001953125,-0.03755950927734375,0.006824016571044922,-0.0016494989395141602
650,416000000,imu1_frame,0.67017154576079,0.01786016313054273,-0.7296414252911219,0.134812849256605,0.005859375,-0.0078125,-0.001953125,-0.0666208267211914,-0.007393956184387207,-0.013459920883178711
650,441000000,imu1_frame,0.670946444511157,0.01858661299990911,-0.7290722244266244,0.13393691793020465,0.005859375,-0.0078125,-0.001953125,-0.061214447021484375,0.012171149253845215,0.007577419281005859
650,465000000,imu1_frame,0.6708464142684499,0.01813170112213629,-0.7291302486167598,0.13418424061581516,0.01171875,0.00390625,0.0,-0.06264495849609375,0.0026742219924926758,0.004936337471008301
650,491000000,imu1_frame,0.6692553209306652,0.018326135289494835,-0.730611942379187,0.134043492286104,0.01171875,0.00390625,0.0,-0.06589794158935547,0.012056589126586914,-0.0018335580825805664
650,515000000,imu1_frame,0.6702792421645588,0.01739517969331473,-0.729600889857177,0.13455737351166377,0.01171875,0.00390625,0.0,-0.06695175170898438,0.02808976173400879,-0.0109788179397583
650,541000000,imu1_frame,0.6711740432046102,0.016539271991009828,-0.7286694859274324,0.135250273525174,-0.001953125,0.001953125,0.009765625,-0.0681161880493164,0.004087090492248535,0.012209773063659668
650,566000000,imu1_frame,0.6696442541226043,0.016698061501448026,-0.7300479596564441,0.13537992563204418,-0.001953125,0.001953125,0.009765625,-0.07155132293701172,0.009170293807983398,0.007235288619995117
650,591000000,imu1_frame,0.6698408640694045,0.017033313563272697,-0.7298995683924692,0.1351654656792782,-0.00390625,0.017578125,0.001953125,-0.0693502426147461,0.016109704971313477,0.013083219528198242
650,615000000,imu1_frame,0.6700280725653587,0.0187710805102628,-0.7299555993452382,0.13369686419419688,-0.00390625,0.017578125,0.001953125,-0.1445608139038086,0.020702242851257324,0.018619894981384277
650,641000000,imu1_frame,0.6699459231880033,0.01693049552783158,-0.7297498213216295,0.13546592415070946,-0.00390625,0.017578125,0.001953125,-0.11356735229492188,0.010478734970092773,0.015203714370727539
650,666000000,imu1_frame,0.6699984080134128,0.015235917384229039,-0.7294373014602011,0.13708108301079727,-0.00390625,0.017578125,0.001953125,-0.12094402313232422,0.003988146781921387,0.015488982200622559
650,690000000,imu1_frame,0.6697313637639369,0.016667549318663894,-0.7298675320140654,0.13592453384986905,-0.00390625,0.00390625,0.005859375,-0.11569023132324219,0.04040217399597168,0.009359955787658691
650,716000000,imu1_frame,0.6708317973228524,0.016855697558398892,-0.7288963622504222,0.1356859545366162,-0.00390625,0.00390625,0.005859375,-0.0337982177734375,0.003847479820251465,0.0035141706466674805
650,741000000,imu1_frame,0.6713552626447826,0.015523474859294062,-0.7282196072727627,0.13688439148036863,-0.00390625,0.00390625,0.005859375,-0.11691474914550781,0.0066721439361572266,0.016038715839385986
650,766000000,imu1_frame,0.6708685014164918,0.016974134461694074,-0.7288388516193809,0.13579860432496693,-0.0078125,0.00390625,0.001953125,-0.11219310760498047,0.04306638240814209,0.004196524620056152
650,790000000,imu1_frame,0.670171895659725,0.01863503921196089,-0.7296705556526727,0.13454830283188032,-0.0078125,0.00390625,0.001953125,-0.1462230682373047,0.007117629051208496,0.022347331047058105
650,816000000,imu1_frame,0.6687166072427448,0.01988776271703159,-0.731112963931735,0.13377746470470053,-0.0078125,0.00390625,0.001953125,-0.10611534118652344,0.03945648670196533,-0.014838933944702148
650,841000000,imu1_frame,0.6695846617878423,0.019096056650498558,-0.7302553071059048,0.13423452522552684,0.005859375,-0.009765625,-0.005859375,-0.10673904418945312,0.019555091857910156,0.007353663444519043
650,865000000,imu1_frame,0.6702697174583414,0.01785993305342172,-0.7294949110871766,0.13511736878564026,0.005859375,-0.009765625,-0.005859375,-0.03188800811767578,0.027367234230041504,-0.010896444320678711
650,890000000,imu1_frame,0.6709543816758445,0.016763394723555806,-0.7287803779739456,0.13571428438996522,0.015625,-0.005859375,-0.009765625,-0.034076690673828125,0.001840829849243164,0.0064220428466796875
650,916000000,imu1_frame,0.6692887167381335,0.017081591529044694,-0.730366804565985,0.13537046821936372,0.015625,-0.005859375,-0.009765625,-0.07144546508789062,0.015815258026123047,-0.0018199682235717773
650,940000000,imu1_frame,0.6701611193360268,0.016012336565233095,-0.7294876562249927,0.13592438568326295,0.015625,-0.005859375,-0.009765625,-0.03816699981689453,0.029798030853271484,-0.014971613883972168
650,966000000,imu1_frame,0.6710134433505804,0.016807129525977627,-0.7288954936164944,0.1347955437893297,0.015625,-0.005859375,-0.009765625,-0.06693649291992188,0.014374971389770508,0.00811910629272461
650,991000000,imu1_frame,0.6708604439219021,0.016290866126044447,-0.7289788753896244,0.13516904859267995,0.005859375,-0.001953125,-0.005859375,-0.06889533996582031,0.0024913549423217773,0.004110932350158691
651,15000000,imu1_frame,0.6696162954194175,0.015168832879416862,-0.7299462853066854,0.1362436933763278,0.005859375,-0.001953125,-0.005859375,-0.12006664276123047,0.015152215957641602,0.005526304244995117
651,40000000,imu1_frame,0.6702699055649388,0.01660345437932828,-0.7295903747393401,0.13476076611666743,0.005859375,-0.001953125,-0.005859375,-0.06921577453613281,-0.024911046028137207,-0.011728763580322266
651,65000000,imu1_frame,0.6708833899963452,0.017843607294723424,-0.7292223176180135,0.13353611568986176,0.001953125,-0.001953125,0.00390625,-0.062468528747558594,0.007092952728271484,0.005174756050109863
651,90000000,imu1_frame,0.6710000959707286,0.016102070110543817,-0.7288772226214149,0.13504661746641594,0.001953125,-0.001953125,0.00390625,-0.06936931610107422,0.0011011362075805664,0.007110714912414551
651,115000000,imu1_frame,0.671269111646599,0.017289763089412144,-0.7288110231772751,0.13391540739135083,0.001953125,-0.001953125,0.00390625,-0.10655498504638672,0.03212273120880127,0.015004217624664307
651,141000000,imu1_frame,0.670944805391866,0.015566108452308918,-0.7289041335095116,0.13523878340945844,0.015625,0.0,0.0,-0.11415290832519531,-0.008897185325622559,0.0053070783615112305
651,165000000,imu1_frame,0.669723471397112,0.016539765904259165,-0.7301783508167355,0.1342999776700888,0.015625,0.0,0.0,-0.11247444152832031,0.020885705947875977,0.009185314178466797
651,191000000,imu1_frame,0.6700872666728187,0.016172746770299028,-0.7298198561111182,0.13447852962760068,0.005859375,0.001953125,-0.001953125,-0.11229133605957031,0.012145400047302246,0.019020438194274902
651,216000000,imu1_frame,0.6695852854494715,0.014360017118749593,-0.7300230285461872,0.13607245573646357,0.005859375,0.001953125,-0.001953125,-0.043625831604003906,0.005964159965515137,0.004208922386169434
651,240000000,imu1_frame,0.6704529214056874,0.015368589596288498,-0.7294127609853969,0.13495818146396377,0.005859375,0.001953125,-0.001953125,-0.07214546203613281,-0.006578922271728516,-0.007721543312072754
651,266000000,imu1_frame,0.6711832567490448,0.016260300338140094,-0.7288869070425003,0.13406160984665552,0.0,-0.001953125,0.005859375,-0.06627464294433594,0.01575767993927002,0.0122489333152771
651,290000000,imu1_frame,0.6704236471659528,0.015389870329000993,-0.7294237029531083,0.13504201857990095,-0.00390625,0.005859375,0.01171875,-0.07220745086669922,-0.0073146820068359375,-0.008356928825378418
651,316000000,imu1_frame,0.6716396512075086,0.01566526274653951,-0.7283574136045577,0.13472288787068595,-0.00390625,0.005859375,0.01171875,-0.03291797637939453,-0.002761363983154297,-0.01519930362701416
651,340000000,imu1_frame,0.6707050183014305,0.01709580966871753,-0.729379761866728,0.1336700216813167,-0.00390625,0.005859375,0.01171875,-0.10773754119873047,0.03424537181854248,6.556510925292969e-05
651,365000000,imu1_frame,0.6714135362898973,0.01609714981437404,-0.7286008501450578,0.13448251270126943,0.0,0.00390625,0.005859375,-0.11008453369140625,0.007227301597595215,0.018121838569641113
651,391000000,imu1_frame,0.6696496585579806,0.016559212364061375,-0.7302380396291437,0.1343411059863922,0.0,0.00390625,0.005859375,-0.06979560852050781,0.02085089683532715,-0.027965664863586426
651,416000000,imu1_frame,0.670759450761362,0.01625195312699706,-0.7292004858714977,0.1344778221070124,0.0,0.00390625,0.005859375,-0.06810569763183594,0.011394262313842773,0.0011125802993774414
651,440000000,imu1_frame,0.6714195878822418,0.016233294368695615,-0.7285925845793025,0.1344807155618666,-0.001953125,0.017578125,0.00390625,-0.06645011901855469,0.009118437767028809,0.01867043972015381
651,465000000,imu1_frame,0.6704481427360066,0.017421844080420447,-0.7296138595730095,0.1336390031751717,-0.001953125,0.017578125,0.00390625,-0.10755443572998047,0.040061235427856445,-0.006507158279418945
651,491000000,imu1_frame,0.6713888007761717,0.016327903673563064,-0.7286432507463417,0.13434839372231008,0.009765625,0.009765625,0.001953125,-0.10933780670166016,0.012355685234069824,0.017600536346435547
651,516000000,imu1_frame,0.6697571406729135,0.01591108509906213,-0.73006504031662,0.13482302027511972,0.009765625,0.009765625,0.001953125,-0.07208538055419922,0.004955410957336426,-0.025569558143615723
651,540000000,imu1_frame,0.6708781043106006,0.01621571961275044,-0.7291310532694387,0.13426662560835623,0.009765625,0.009765625,0.001953125,-0.11055374145507812,0.013329029083251953,0.004111528396606445
651,566000000,imu1_frame,0.6714661770739083,0.016489465089548103,-0.7286761050690823,0.13376249283025068,0.009765625,-0.00390625,0.0,-0.10712146759033203,0.022083640098571777,0.020144224166870117
651,591000000,imu1_frame,0.6699810303155033,0.01554399885275491,-0.7299000580847677,0.1346466053225808,0.009765625,-0.00390625,-0.001953125,-0.11505699157714844,0.0013893842697143555,-0.019945979118347168
651,616000000,imu1_frame,0.670963027053652,0.01602764128763943,-0.7291240219861894,0.13390254517535452,0.009765625,-0.00390625,-0.001953125,-0.1099853515625,0.015189290046691895,0.0062732696533203125
651,640000000,imu1_frame,0.6710402258217463,0.015440753451571969,-0.7290015491096312,0.13425103298561808,0.009765625,-0.00390625,-0.001953125,-0.06865119934082031,0.0019658803939819336,0.008214831352233887
651,666000000,imu1_frame,0.6708338025856875,0.016467439196511443,-0.7293581682818412,0.13321972494827367,0.0078125,-0.00390625,0.0,-0.06470108032226562,0.030800461769104004,0.003306150436401367
651,691000000,imu1_frame,0.6711250207359086,0.01495781609148309,-0.7289244527394378,0.1343004559877246,0.013671875,-0.001953125,0.0,-0.07024669647216797,-0.0057228803634643555,0.009658336639404297
651,716000000,imu1_frame,0.6710134291077032,0.013217790481946297,-0.7288120010450686,0.13564414880332892,0.013671875,-0.001953125,0.0,-0.07750606536865234,-0.008817195892333984,0.005796074867248535
651,741000000,imu1_frame,0.6710756720400117,0.01474072829541654,-0.7289828501409217,0.1342540782463826,0.0,-0.00390625,-0.005859375,-0.07075881958007812,0.03100001811981201,0.008244633674621582
651,765000000,imu1_frame,0.6717820077404937,0.01600093242205141,-0.7285343649344356,0.13300595230046997,0.0,-0.00390625,-0.005859375,-0.06366157531738281,-0.014772772789001465,-0.011515498161315918
651,791000000,imu1_frame,0.6725264806019075,0.017014693634097078,-0.7280535238843809,0.13174482703045742,0.013671875,-0.001953125,-0.005859375,-0.0570068359375,0.014122366905212402,0.008847177028656006
651,816000000,imu1_frame,0.6729461974923011,0.01760301548047929,-0.7278003902121056,0.13092036179965985,0.013671875,-0.001953125,-0.005859375,-0.13482284545898438,0.03212010860443115,0.020596861839294434
651,840000000,imu1_frame,0.6719389831035614,0.016283061510471823,-0.7285631047463078,0.13201767796783334,0.013671875,-0.001953125,-0.005859375,-0.060492515563964844,0.04086732864379883,0.031974613666534424
651,866000000,imu1_frame,0.6708708530160791,0.014649832304600135,-0.7293536613235831,0.133270093047201,0.021484375,0.00390625,-0.00390625,-0.06920909881591797,0.0041692256927490234,0.0029352903366088867
651,891000000,imu1_frame,0.6712850588254458,0.015202272865943282,-0.7291154260033188,0.1324233977113791,0.017578125,0.001953125,-0.0078125,-0.06484222412109375,0.0219423770904541,0.014491677284240723
651,916000000,imu1_frame,0.6702643262767495,0.013779339359882988,-0.7298775856302417,0.13354614454243732,0.017578125,0.001953125,-0.0078125,-0.07317161560058594,0.028923630714416504,0.02171921730041504
651,940000000,imu1_frame,0.6711737831347514,0.0130353095276619,-0.7290091403107611,0.1337965129645334,0.017578125,0.001953125,-0.0078125,-0.07342720031738281,0.012421488761901855,0.010058999061584473
651,965000000,imu1_frame,0.6707952482975142,0.012990996765843251,-0.729308387033746,0.13406806281416142,-0.009765625,0.001953125,0.0078125,-0.074462890625,0.00921642780303955,0.0005481243133544922
651,991000000,imu1_frame,0.6714476707747236,0.01323218696866202,-0.7287573511542644,0.13377465297224525,0.0,0.00390625,0.00390625,-0.0718221664428711,0.014651179313659668,0.01780521869659424
652,16000000,imu1_frame,0.6697887352151731,0.012697376434443573,-0.7301564944402438,0.1345114137806706,0.0,0.00390625,0.00390625,-0.07898521423339844,0.0021756887435913086,-0.02654135227203369
652,40000000,imu1_frame,0.6708288659384267,0.012961329342991905,-0.7292506491838188,0.13421671740288457,-0.00390625,0.00390625,0.013671875,-0.07524967193603516,0.006818294525146484,0.000985860824584961
652,65000000,imu1_frame,0.6719857642658419,0.013192309820622758,-0.7282320834904448,0.1339370305808469,-0.00390625,0.00390625,0.013671875,-0.11454486846923828,0.010482311248779297,-0.007566928863525391
652,91000000,imu1_frame,0.6729132504659651,0.013628758113620697,-0.7274163286016749,0.13366936516371147,-0.013671875,0.001953125,0.013671875,-0.11077213287353516,0.017533540725708008,0.017255187034606934
652,115000000,imu1_frame,0.671612274364161,0.01443935558415744,-0.7286566703389572,0.13337134139033582,-0.013671875,0.001953125,0.013671875,-0.0682821273803711,-0.002293109893798828,0.022296547889709473
652,140000000,imu1_frame,0.6708773229122147,0.016086488551419566,-0.7295027006063535,0.13225222983474424,-0.013671875,0.001953125,0.013671875,-0.14577293395996094,-0.040094971656799316,0.03912174701690674
652,166000000,imu1_frame,0.6701316014886417,0.01762011790038859,-0.7304138372028635,0.13080059080154716,0.01171875,-0.001953125,0.01171875,-0.14101886749267578,0.0030329227447509766,0.020574212074279785
652,191000000,imu1_frame,0.669552407973991,0.019072231556693565,-0.7311391394061605,0.12950436976448737,0.005859375,-0.001953125,0.013671875,-0.1366443634033203,0.04249298572540283,0.006377816200256348
652,216000000,imu1_frame,0.6696961808854549,0.01707953291982897,-0.7307568586342272,0.13118585450311565,0.005859375,-0.001953125,0.013671875,-0.10498428344726562,0.06963133811950684,0.008761405944824219
652,241000000,imu1_frame,0.669813765855187,0.015088648548763123,-0.7303889918052936,0.1328674994327485,0.005859375,-0.001953125,0.013671875,-0.1127328872680664,0.057828307151794434,0.010585904121398926
652,266000000,imu1_frame,0.6696032040102696,0.013102238359029671,-0.7303279236984492,0.13446562533032896,0.0078125,-0.0390625,0.015625,-0.12131500244140625,0.0090867280960083,0.0039528608322143555
652,291000000,imu1_frame,0.6698138981851165,0.013584306233915464,-0.7302442690919317,0.133821208635224,0.005859375,-0.044921875,0.017578125,-0.11796283721923828,0.023773908615112305,0.010035157203674316
652,316000000,imu1_frame,0.6700749910304282,0.014741363040137418,-0.7302107700592743,0.13256858564807852,0.005859375,-0.044921875,0.017578125,-0.06940841674804688,-0.02206122875213623,-0.017978429794311523
652,342000000,imu1_frame,0.6705063858710786,0.015512365570754832,-0.7300185003704016,0.13135273936029399,0.021484375,-0.044921875,0.009765625,-0.06408023834228516,0.003693222999572754,-0.006162285804748535
652,366000000,imu1_frame,0.6711495526865036,0.014433170979361337,-0.7293692281965914,0.13179715650990004,0.021484375,-0.044921875,0.009765625,-0.03097248077392578,0.01970088481903076,-0.029046297073364258
652,390000000,imu1_frame,0.6719094238535565,0.01353958411397725,-0.7286839228094621,0.13181102547896417,0.0390625,-0.033203125,0.009765625,-0.031264305114746094,0.004612326622009277,-0.009427249431610107
652,416000000,imu1_frame,0.6719285577331321,0.01117715467950818,-0.72845598350271,0.13318770444392725,0.0390625,-0.033203125,0.009765625,-0.03599357604980469,0.06608343124389648,-0.010182857513427734
652,441000000,imu1_frame,0.6705559848921798,0.009507528627493999,-0.7295627055527509,0.13417353200697327,0.0390625,-0.033203125,0.009765625,-0.045101165771484375,0.03315091133117676,0.027428507804870605
652,466000000,imu1_frame,0.6693512461844097,0.007806842702649416,-0.7304523745520048,0.1354521721853568,0.025390625,-0.0078125,0.009765625,-0.05493640899658203,-0.004531502723693848,-0.0047293901443481445
652,491000000,imu1_frame,0.6699962171240218,0.008428059462037084,-0.730024832537492,0.1345279923726365,0.017578125,-0.001953125,0.009765625,-0.049653053283691406,0.014632821083068848,0.012520074844360352
652,515000000,imu1_frame,0.6686335524924918,0.008302788386960115,-0.7312644331808333,0.13458292964186072,0.017578125,-0.001953125,0.009765625,-0.13147449493408203,0.015934228897094727,0.05482602119445801
652,541000000,imu1_frame,0.6685378551914568,0.009918964021345355,-0.7316430833161717,0.13288020531424397,0.017578125,-0.001953125,0.009765625,-0.12408733367919922,0.022569656372070312,0.013733386993408203
652,566000000,imu1_frame,0.6684433050816663,0.009768919384763158,-0.7316756755686179,0.13318716862655638,-0.01171875,-0.009765625,-0.001953125,-0.12471294403076172,0.016559123992919922,0.01178133487701416
652,590000000,imu1_frame,0.6685630643344393,0.0104545279928445,-0.7316208429586843,0.13283476201889083,-0.01953125,-0.0078125,-0.005859375,-0.12213993072509766,0.030670881271362305,0.01505744457244873
652,616000000,imu1_frame,0.6671183883714774,0.01179943317956449,-0.7330416837040413,0.1321503659685737,-0.01953125,-0.0078125,-0.005859375,-0.16431045532226562,0.027818799018859863,0.016617417335510254
652,641000000,imu1_frame,0.6671218217739957,0.01152328624880935,-0.7330422401108663,0.13215431510251988,0.009765625,-0.03125,0.0,-0.16443347930908203,0.023714900016784668,0.017066121101379395
652,665000000,imu1_frame,0.6667706172612088,0.009606345319059335,-0.7331149302121038,0.13366810085738434,0.009765625,-0.03125,0.0,-0.09566211700439453,0.05175495147705078,0.006571173667907715
652,690000000,imu1_frame,0.6667410133306524,0.008017977039570807,-0.7328758600906005,0.13522243483782756,-0.013671875,-0.029296875,0.00390625,-0.1031646728515625,0.008785009384155273,0.005202174186706543
652,716000000,imu1_frame,0.6665223976963927,0.009955253698961731,-0.7333303309294811,0.13369896047351604,-0.013671875,-0.029296875,0.00390625,-0.09160900115966797,-0.01717209815979004,0.00021767616271972656
652,741000000,imu1_frame,0.6673273199864457,0.009321528673702072,-0.7324985109463305,0.13428808049972948,-0.013671875,-0.029296875,0.00390625,-0.1314992904663086,0.03801703453063965,-0.018067121505737305
652,765000000,imu1_frame,0.6680290566003262,0.008866249079697892,-0.7317965207328653,0.13465667977567383,-0.009765625,-0.033203125,0.00390625,-0.13167953491210938,0.024709224700927734,0.0001518726348876953
652,790000000,imu1_frame,0.6686110137426556,0.008641120148861942,-0.7312738424480086,0.13462247470580907,0.00390625,-0.03125,0.001953125,-0.1304941177368164,0.020266294479370117,0.015544772148132324
652,816000000,imu1_frame,0.6669673837493378,0.00955588631646327,-0.7328929436448817,0.13390715890799404,0.00390625,-0.03125,0.001953125,-0.0957479476928711,0.008284211158752441,0.011751174926757812
652,841000000,imu1_frame,0.6651489586646465,0.009449066966635356,-0.7345051996053041,0.13412564882813707,0.00390625,-0.03125,0.001953125,-0.05809783935546875,0.00896918773651123,0.0034312009811401367
652,866000000,imu1_frame,0.6652785316438168,0.009757166685237286,-0.7344006864998729,0.13403322237653964,-0.017578125,-0.0234375,-0.01171875,-0.056303977966308594,0.014150857925415039,0.0073708295822143555
652,891000000,imu1_frame,0.6648529093763721,0.009309944945812866,-0.7346652465051171,0.13472531089759898,-0.021484375,-0.03515625,-0.0078125,-0.060092926025390625,-8.916854858398438e-05,-0.003926396369934082
652,915000000,imu1_frame,0.6655707867263176,0.00892515130688477,-0.7339356951057898,0.13518233974984045,-0.021484375,-0.03515625,-0.0078125,-0.06071662902832031,0.025569558143615723,-0.02491581439971924
652,941000000,imu1_frame,0.6665651613417409,0.008679848218640429,-0.7329688866779468,0.13554393045227492,-0.01953125,-0.005859375,-0.0078125,-0.05941009521484375,0.014508843421936035,0.0010968446731567383
652,965000000,imu1_frame,0.6656988914926235,0.010451236387252495,-0.733945536618654,0.13438640854277692,-0.01953125,-0.005859375,-0.0078125,-0.058750152587890625,-0.016741037368774414,0.018091440200805664
652,991000000,imu1_frame,0.6647424247708745,0.01260546158150899,-0.7350253662194858,0.1330275237007967,-0.02734375,-0.009765625,-0.017578125,-0.05315971374511719,0.034607768058776855,-0.005851149559020996
653,15000000,imu1_frame,0.665527977352775,0.012438370436155059,-0.7342441309929337,0.133429211209723,-0.02734375,-0.009765625,-0.017578125,-0.13037109375,0.024727702140808105,0.0146101713180542
653,40000000,imu1_frame,0.6655252447411252,0.012370111948068167,-0.7341671529733363,0.13387203007978743,-0.02734375,-0.009765625,-0.017578125,-0.13104820251464844,0.01790487766265869,0.01489865779876709
653,66000000,imu1_frame,0.6654647508807368,0.013152947809610233,-0.7342973224574242,0.1333833105415149,-0.015625,-0.01171875,-0.01953125,-0.12819576263427734,0.03567242622375488,0.01380932331085205
653,90000000,imu1_frame,0.6655267931714115,0.012134686597443661,-0.7340628130243744,0.13445677181496463,-0.015625,-0.009765625,-0.017578125,-0.13350582122802734,0.0069959163665771484,0.014242172241210938
653,115000000,imu1_frame,0.6645044446129893,0.010881149739351264,-0.7347423841110503,0.13590096637162763,-0.015625,-0.009765625,-0.017578125,-0.14219951629638672,0.047278404235839844,0.02628469467163086
653,141000000,imu1_frame,0.6637560549213032,0.009359049093548276,-0.7351338149475257,0.13754483587568703,-0.015625,-0.009765625,-0.017578125,-0.15168190002441406,0.0061604976654052734,0.006188631057739258
653,165000000,imu1_frame,0.664226380852302,0.010725129333248987,-0.7348452145802622,0.13671429036178437,-0.03125,-0.01171875,-0.0078125,-0.14518356323242188,0.03525137901306152,0.018922090530395508
653,191000000,imu1_frame,0.663885296672448,0.009628925402014687,-0.7349325475118363,0.1379773433049814,-0.01953125,-0.0234375,-0.00390625,-0.15146732330322266,0.004012465476989746,0.009788990020751953
653,215000000,imu1_frame,0.6626820800533726,0.011102463168996742,-0.736160637039112,0.13710110343059012,-0.01953125,-0.0234375,-0.00390625,-0.14523696899414062,-0.03416097164154053,0.0533299446105957
653,241000000,imu1_frame,0.6612790156621149,0.012754105897880397,-0.7375961077830928,0.13601241859081178,-0.015625,-0.0390625,-0.001953125,-0.14272689819335938,0.007798194885253906,0.01778090000152588
653,266000000,imu1_frame,0.6609160902996771,0.01427965457631001,-0.7381012463439479,0.13487981017810352,-0.015625,-0.0390625,-0.001953125,-0.1378316879272461,0.04555404186248779,0.009083271026611328
653,291000000,imu1_frame,0.6610591032999278,0.012962616200966672,-0.7377671775200402,0.13613384700226178,-0.013671875,-0.04296875,0.009765625,-0.14324188232421875,0.009886503219604492,0.012075424194335938
653,316000000,imu1_frame,0.6618387620901294,0.012525943849145824,-0.7370024961122791,0.13652792553160353,-0.013671875,-0.04296875,0.009765625,-0.10376548767089844,0.0313640832901001,-0.04208481311798096
653,340000000,imu1_frame,0.6604796145515998,0.013938354430649643,-0.7383641086490156,0.13561284635490908,-0.013671875,-0.04296875,0.009765625,-0.024117469787597656,-0.006695270538330078,-0.0022628307342529297
653,366000000,imu1_frame,0.6605952457568909,0.015028343069793379,-0.7383017492340533,0.13527230783093178,-0.0390625,-0.02734375,0.021484375,-0.020147323608398438,0.01305842399597168,0.0016230344772338867
653,391000000,imu1_frame,0.6604300711226343,0.014035563860300786,-0.7382194456472275,0.13662786748089115,-0.03125,-0.029296875,0.021484375,-0.025953292846679688,-0.018338441848754883,-0.003300905227661133
653,416000000,imu1_frame,0.6607233215716991,0.01547118238144398,-0.7380796984415844,0.13580756089172974,-0.03125,-0.029296875,0.021484375,-0.10230636596679688,0.012201070785522461,0.0048018693923950195
653,441000000,imu1_frame,0.6607547396100522,0.015238043624249156,-0.737933206512504,0.1364754880391786,-0.03125,-0.029296875,0.021484375,-0.060563087463378906,-1.8596649169921875e-05,0.00603938102722168
653,466000000,imu1_frame,0.6608105766800958,0.016406636032888205,-0.7380314753414978,0.13553503402093445,-0.0078125,-0.009765625,-0.0078125,-0.055960655212402344,0.0289154052734375,0.007946372032165527
653,490000000,imu1_frame,0.660696233328662,0.015043983712966797,-0.7379302468954134,0.13679589371116485,-0.0078125,-0.013671875,-0.013671875,-0.06248950958251953,-0.0067005157470703125,0.0038591623306274414
653,516000000,imu1_frame,0.6607609419034227,0.01704626256157802,-0.7381394647037943,0.13510933807246345,-0.0078125,-0.013671875,-0.013671875,-0.09700298309326172,0.00479435920715332,0.006810307502746582
653,541000000,imu1_frame,0.6611253109993456,0.018070499012710486,-0.7379988385664963,0.1339570621354209,0.0078125,-0.01171875,-0.02734375,-0.0909423828125,0.0334019660949707,0.017217040061950684
653,566000000,imu1_frame,0.6595417741160402,0.01765033568343651,-0.7393580394184358,0.13432350275902927,0.0078125,-0.01171875,-0.02734375,-0.136505126953125,0.027263641357421875,0.014922261238098145
653,591000000,imu1_frame,0.6597353932059368,0.017147634550953392,-0.7391613232104338,0.1345202878770178,0.005859375,-0.0234375,-0.029296875,-0.13713550567626953,0.016830086708068848,0.019895553588867188
653,616000000,imu1_frame,0.6581102144042286,0.016096460723074132,-0.7404652188292165,0.13543673561191488,0.005859375,-0.0234375,-0.029296875,-0.029539108276367188,-0.005400300025939941,-0.02301478385925293
653,640000000,imu1_frame,0.6588849919297379,0.01663052064272154,-0.7399054813160145,0.13466206559910693,0.005859375,-0.0234375,-0.029296875,-0.024267196655273438,0.010057568550109863,-0.0026345252990722656
653,666000000,imu1_frame,0.6592830525696179,0.015908319515903314,-0.7395216149854021,0.13490946198858275,0.015625,-0.021484375,-0.00390625,-0.02490234375,-0.004803180694580078,0.007499575614929199
653,690000000,imu1_frame,0.6585861109475111,0.01701351089379834,-0.7402866622857159,0.13397959753624364,0.00390625,-0.0078125,0.005859375,-0.023126602172851562,0.025330662727355957,-0.010278463363647461
653,716000000,imu1_frame,0.6581644926475253,0.018837748568131068,-0.7409041871408492,0.13238438474407443,0.00390625,-0.0078125,0.005859375,-0.13027667999267578,-0.004557132720947266,0.01929616928100586
653,740000000,imu1_frame,0.6581642681153017,0.016986117842536765,-0.7406731296335348,0.1339200620361028,0.00390625,-0.0078125,0.005859375,-0.14147090911865234,0.026923060417175293,0.01796746253967285
653,766000000,imu1_frame,0.6581217051130539,0.01611148277397886,-0.7406541578832482,0.1343415787914025,0.015625,-0.033203125,0.001953125,-0.1439065933227539,0.008852124214172363,0.016820907592773438
653,790000000,imu1_frame,0.6581023348187897,0.01709029950325668,-0.7408624334045515,0.1331619064854252,0.017578125,-0.03125,0.00390625,-0.13990402221679688,0.03840839862823486,0.016449928283691406
653,815000000,imu1_frame,0.6582990008096488,0.015105997683270422,-0.7404887712121382,0.13450135343463485,0.017578125,-0.03125,0.00390625,-0.06462287902832031,0.10509860515594482,-0.018817543983459473
653,841000000,imu1_frame,0.6587016662959965,0.013242627614309097,-0.7399061900560743,0.13592489672407623,0.005859375,-0.01953125,0.0078125,-0.07084178924560547,0.058591604232788086,-0.009498238563537598
653,865000000,imu1_frame,0.6575280996930685,0.01439143860183522,-0.7411017042405623,0.13497388110566463,0.005859375,-0.01953125,0.0078125,-0.11252403259277344,-0.022414445877075195,0.03914976119995117
653,890000000,imu1_frame,0.6564013550417427,0.015803569707885178,-0.7422927694855227,0.13374958935774278,0.0078125,-0.017578125,0.00390625,-0.11023521423339844,0.017094731330871582,0.011027097702026367
653,915000000,imu1_frame,0.6546909275423448,0.015346490000847224,-0.7437282203891951,0.13421106077786268,0.0078125,-0.017578125,0.00390625,-0.074737548828125,0.009454131126403809,0.0020998716354370117
653,941000000,imu1_frame,0.6557599430421557,0.015454534268994086,-0.7428559112695812,0.13381012504185555,0.0078125,-0.017578125,0.00390625,-0.113067626953125,0.013077974319458008,-0.0055048465728759766
653,966000000,imu1_frame,0.6566777897136625,0.015659687232109826,-0.7421314049399388,0.13330428535663763,0.009765625,-0.01171875,-0.009765625,-0.10858154296875,0.01991581916809082,0.018234848976135254
653,991000000,imu1_frame,0.6561216896256862,0.015055414821653155,-0.7425786242969135,0.1336212918085513,0.013671875,-0.01171875,-0.013671875,-0.11220073699951172,0.008634328842163086,0.003771543502807617
654,16000000,imu1_frame,0.6563855481987227,0.013376934187655242,-0.7421735239104772,0.13474987997733284,0.013671875,-0.01171875,-0.013671875,-0.07520866394042969,0.008139371871948242,0.009149551391601562
654,40000000,imu1_frame,0.6552169367453431,0.01463594873856785,-0.7433963279920954,0.13356067660220852,0.013671875,-0.01171875,-0.013671875,-0.07341194152832031,0.005982637405395508,0.015133857727050781
654,65000000,imu1_frame,0.6542714939203232,0.015447099827803653,-0.7443867686872815,0.13258407880845258,0.021484375,-0.017578125,-0.009765625,-0.07264900207519531,0.033025264739990234,-0.008579134941101074
654,91000000,imu1_frame,0.6550569403357532,0.014362081181025924,-0.7436474818524456,0.13297578078968983,0.021484375,-0.017578125,-0.013671875,-0.07334423065185547,0.009971857070922852,0.010928988456726074
654,115000000,imu1_frame,0.656064995729746,0.013539696423750662,-0.7427434264414544,0.13314503549471465,0.021484375,-0.017578125,-0.013671875,-0.07648277282714844,0.0711437463760376,-0.07713973522186279
654,140000000,imu1_frame,0.657060547736993,0.012939594450279245,-0.7417811335008557,0.13365909428546494,-0.01171875,-0.015625,-0.005859375,-0.0758047103881836,0.05299210548400879,-0.05188322067260742
654,166000000,imu1_frame,0.6554770564279575,0.013745165118668242,-0.743226721055174,0.1333226913993843,-0.01171875,-0.015625,-0.005859375,-0.11322402954101562,-0.004642367362976074,0.06039607524871826
654,191000000,imu1_frame,0.6540072151458693,0.014395606362741868,-0.7445725877220087,0.13296236560600516,0.0,-0.00390625,0.00390625,-0.11579036712646484,0.01362466812133789,0.02312004566192627
654,216000000,imu1_frame,0.6550900199618354,0.014549077423410588,-0.7436664437031022,0.13268613568308765,0.0,-0.00390625,0.00390625,-0.11510848999023438,0.016306400299072266,0.01195061206817627
654,241000000,imu1_frame,0.6561140583870158,0.014120101954631516,-0.7427302489070876,0.13291629872264088,0.0,-0.00390625,0.00390625,-0.031241416931152344,0.0042035579681396484,0.002804279327392578
654,266000000,imu1_frame,0.6562631342845439,0.014230100608478914,-0.7425949433783704,0.13292461353930837,-0.0078125,-0.005859375,0.005859375,-0.030101776123046875,0.005202293395996094,0.007064104080200195
654,290000000,imu1_frame,0.6557303890162914,0.014037911166431586,-0.7430497980390481,0.13303229534498826,0.0078125,-0.005859375,0.001953125,-0.03261089324951172,0.0025626420974731445,-0.0068264007568359375
654,315000000,imu1_frame,0.6552140191817803,0.015768683942266454,-0.7437464271153981,0.1314807583924966,0.0078125,-0.005859375,0.001953125,-0.10966682434082031,0.010141372680664062,0.01569366455078125
654,343000000,imu1_frame,0.6537541183194271,0.015625167140723536,-0.7450042486631964,0.13164374807031004,0.0078125,-0.005859375,0.001953125,-0.07191753387451172,0.010070204734802246,-0.021529078483581543
654,366000000,imu1_frame,0.6547967965471936,0.015561972489881152,-0.7441694965455392,0.1311897124583942,0.0234375,-0.001953125,-0.01171875,-0.06791019439697266,0.012053251266479492,0.004935264587402344
654,391000000,imu1_frame,0.6556030276447423,0.014019834285153479,-0.743346416207249,0.13200083295761428,0.0234375,-0.001953125,-0.01171875,-0.07059764862060547,0.055079102516174316,-0.010579824447631836
