timestamp_sec,timestamp_nsec,frame_id,orientation_x,orientation_y,orientation_z,orientation_w,angular_velocity_x,angular_velocity_y,angular_velocity_z,linear_acceleration_x,linear_acceleration_y,linear_acceleration_z
1367,736000000,imu1_frame,-0.008187964930202792,-0.06753384175556555,-0.04270482230497344,0.9967689981133726,0.0,0.0,0.0,-0.02188098430633545,-0.010121501982212067,-0.02868938446044922
1367,761000000,imu1_frame,-0.0096880255494478,-0.06555261504837835,-0.04259221072485159,0.9968926223053525,0.0,0.0,0.0,0.015328168869018555,0.020927563309669495,-0.06847476959228516
1367,786000000,imu1_frame,-0.008188342026859618,-0.06753299611780407,-0.04270479163332433,0.9967690536236357,0.0,0.0,0.0,-0.021865129470825195,-0.010113388299942017,-0.06384658813476562
1367,811000000,imu1_frame,-0.009688840090736202,-0.06555214907720204,-0.04259215276550609,0.9968926475061677,0.0,0.0,0.0,0.015336394309997559,0.02094389498233795,-0.06847572326660156
1367,836000000,imu1_frame,-0.008188688458174791,-0.06753219736981207,-0.042704763335234375,0.996769106106435,0.0,0.0,0.0,-0.021849870681762695,-0.010105922818183899,-0.06384944915771484
1367,861000000,imu1_frame,-0.009689635857692449,-0.06555173694322333,-0.04259209640280866,0.9968926692802419,0.0,0.0,0.0,0.015343904495239258,0.020959824323654175,-0.06847667694091797
1367,886000000,imu1_frame,-0.008189010052782492,-0.06753144712522718,-0.04270473699605748,0.9967691554224707,0.0,0.0,0.0,-0.021835684776306152,-0.01009899377822876,-0.06385040283203125
1367,911000000,imu1_frame,-0.00969036992740712,-0.06555134279375326,-0.042592044325803595,0.9968926902875528,0.0,0.0,0.0,0.015350818634033203,0.020974531769752502,-0.06847667694091797
1367,936000000,imu1_frame,-0.007965988511084385,-0.06734520950002007,-0.04271818254510721,0.9967829867451004,0.0,0.0,0.0,-0.018041610717773438,-0.014304377138614655,-0.02925586700439453
1367,961000000,imu1_frame,-0.009690689804185696,-0.06555145211681979,-0.042592023199126354,0.9968926808921313,0.0,0.0,0.0,0.015348672866821289,0.02098071575164795,-0.03332042694091797
1367,986000000,imu1_frame,-0.007965940950878951,-0.06734496617952637,-0.04271818403850479,0.9967830035005102,0.0,0.0,0.0,-0.018036842346191406,-0.01430513709783554,-0.029256820678710938
1368,11000000,imu1_frame,-0.009691000223825168,-0.06555155200255317,-0.04259200267424702,0.9968926721833777,0.0,0.0,0.0,0.015346407890319824,0.020986661314964294,-0.03331947326660156
1368,36000000,imu1_frame,-0.007965886021027109,-0.06734471510569344,-0.04271818597210378,0.9967830208197198,0.0,0.0,0.0,-0.018031954765319824,-0.014305971562862396,-0.029257774353027344
1368,61000000,imu1_frame,-0.009691314038729327,-0.06555165407729516,-0.0425919819202526,0.9968926633073585,0.0,0.0,0.0,0.015343785285949707,0.020992770791053772,-0.03331947326660156
1368,86000000,imu1_frame,-0.007965815934203358,-0.06734444865388894,-0.04271818881279386,0.9967830392600792,0.0,0.0,0.0,-0.01802670955657959,-0.014307104051113129,-0.02925872802734375
1368,111000000,imu1_frame,-0.010031589954668648,-0.06594872774060355,-0.04257093743889781,0.9968640066718983,0.0,0.0,0.0,0.007364749908447266,0.027314379811286926,-0.06732463836669922
1368,136000000,imu1_frame,-0.007785993620604238,-0.06703218599847603,-0.04272788465003215,0.9968050923911551,0.0,0.0,0.0,-0.011823296546936035,-0.01755937933921814,-0.030134201049804688
1368,161000000,imu1_frame,-0.010031599221940992,-0.06594900120165456,-0.04257093820529521,0.9968639884547317,0.0,0.0,0.0,0.007359981536865234,0.02731427550315857,-0.03216743469238281
1368,186000000,imu1_frame,-0.007785835769979033,-0.06703212324497301,-0.04272789468675894,0.9968050974138681,0.0,0.0,0.0,-0.011821985244750977,-0.017562411725521088,-0.030134201049804688
1368,211000000,imu1_frame,-0.010227348780251489,-0.06652377908591799,-0.042560560758906345,0.9968242507187226,0.0,0.0,0.0,-0.00394892692565918,0.030655845999717712,-0.06575679779052734
1368,236000000,imu1_frame,-0.007736315979557709,-0.06664592946087051,-0.042728358309110676,0.9968313583036849,0.0,0.0,0.0,-0.004291176795959473,-0.01820129156112671,-0.031158447265625
1368,261000000,imu1_frame,-0.01022749569549361,-0.06652380439108543,-0.042560550984513786,0.9968242479399414,0.0,0.0,0.0,-0.0039490461349487305,0.03065866231918335,-0.030600547790527344
1368,286000000,imu1_frame,-0.007736462789589168,-0.0666459416493546,-0.04272834856934495,0.996831356766887,0.0,0.0,0.0,-0.004291415214538574,-0.018198423087596893,-0.031157493591308594
1368,311000000,imu1_frame,-0.010227637293473592,-0.06652375475557551,-0.04256054126222119,0.9968242502146905,0.0,0.0,0.0,-0.003948211669921875,0.030661463737487793,-0.03060150146484375
1368,336000000,imu1_frame,-0.007736609360447918,-0.06664596860098966,-0.04272833898899468,0.9968313542380584,0.0,0.0,0.0,-0.0042923688888549805,-0.018195554614067078,-0.031157493591308594
1368,361000000,imu1_frame,-0.01022777541333136,-0.06652366305201864,-0.04256053155400787,0.9968242553319399,0.0,0.0,0.0,-0.003946542739868164,0.030664265155792236,-0.03060150146484375
1368,386000000,imu1_frame,-0.007736755088693273,-0.0666460065384145,-0.042728329525009254,0.9968313509762728,0.0,0.0,0.0,-0.004293084144592285,-0.018192753195762634,-0.031157493591308594
1368,411000000,imu1_frame,-0.010227914041770432,-0.0665236018193511,-0.04256052194924544,0.9968242584060353,0.0,0.0,0.0,-0.003945589065551758,0.030667021870613098,-0.03060150146484375
1368,436000000,imu1_frame,-0.007736898583151614,-0.06664602734671667,-0.042728320075718224,0.9968313488763894,0.0,0.0,0.0,-0.004293680191040039,-0.018189959228038788,-0.031157493591308594
1368,461000000,imu1_frame,-0.01018390186766179,-0.06712881852247676,-0.04256643122313817,0.9967838826944645,0.0,0.0,0.0,-0.01564919948577881,0.0292900949716568,-0.0641937255859375
1368,486000000,imu1_frame,-0.007738836816753773,-0.06664649783877069,-0.04272819260351936,0.996831307838687,0.0,0.0,0.0,-0.0043048858642578125,-0.018152393400669098,-0.06631183624267578
1368,511000000,imu1_frame,-0.010230294656139975,-0.06652243410529865,-0.04256035509391838,0.9968243190283002,0.0,0.0,0.0,-0.003924846649169922,0.03071463108062744,-0.030603408813476562
1368,536000000,imu1_frame,-0.007739379217215274,-0.06664655076414128,-0.04272815665244242,0.99683130163015,0.0,0.0,0.0,-0.004305839538574219,-0.01814185082912445,-0.03115558624267578
1368,561000000,imu1_frame,-0.010230943335311053,-0.06652235567531627,-0.04256031111528236,0.9968243194824485,0.0,0.0,0.0,-0.003923535346984863,0.030727341771125793,-0.030603408813476562
1368,586000000,imu1_frame,-0.007740037533185064,-0.06664657271430949,-0.04272811274941705,0.996831296933084,0.0,0.0,0.0,-0.004306674003601074,-0.01812899112701416,-0.03115558624267578
1368,611000000,imu1_frame,-0.010231729444509207,-0.06652224298928229,-0.04256025776688741,0.9968243212116492,0.0,0.0,0.0,-0.0039223432540893555,0.030742868781089783,-0.030603408813476562
1368,636000000,imu1_frame,-0.0077408334026249715,-0.06664654045041338,-0.0427280592489138,0.9968312952034791,0.0,0.0,0.0,-0.004306793212890625,-0.0181133970618248,-0.031154632568359375
1368,661000000,imu1_frame,-0.01023268218116935,-0.06652215933027741,-0.042560193363344434,0.996824319764667,0.0,0.0,0.0,-0.003921151161193848,0.030761554837226868,-0.030603408813476562
1368,686000000,imu1_frame,-0.007741797234897173,-0.06664654195011414,-0.042727994726549944,0.9968312903838408,0.0,0.0,0.0,-0.00430750846862793,-0.018094517290592194,-0.031154632568359375
1368,711000000,imu1_frame,-0.008957683087557178,-0.06448128714323996,-0.042635723093438514,0.9969674611733091,0.0,0.0,0.0,0.001554250717163086,0.007546000182628632,-0.07146358489990234
1368,736000000,imu1_frame,-0.008638759585910804,-0.06693999211210415,-0.04267156543426414,0.9968066747329883,0.0,0.0,0.0,-0.010730147361755371,-0.0007926598191261292,-0.03010082244873047
1368,761000000,imu1_frame,-0.008602908393641893,-0.06446374569500717,-0.04265953447221782,0.9969707014635655,0.0,0.0,0.0,0.0021834373474121094,0.0006173700094223022,-0.03647327423095703
1368,786000000,imu1_frame,-0.008638640903039329,-0.06694437019910536,-0.042671598287990484,0.9968063803374966,0.0,0.0,0.0,-0.04597127437591553,-0.0007987320423126221,-0.03009033203125
1368,811000000,imu1_frame,-0.010079461670222521,-0.06493336270274984,-0.042562720928910946,0.9969305279946439,0.0,0.0,0.0,0.027026057243347168,0.02911582589149475,-0.06990337371826172
1368,836000000,imu1_frame,-0.00863206480380264,-0.06695323010440456,-0.04267209229240498,0.9968058210981706,0.0,0.0,0.0,-0.010982036590576172,-0.0009349361062049866,-0.06522560119628906
1368,861000000,imu1_frame,-0.010075127001387067,-0.06494409494267261,-0.04256307631327715,0.9969298575540475,0.0,0.0,0.0,0.026821494102478027,0.029021814465522766,-0.06987667083740234
1368,886000000,imu1_frame,-0.008625261624390696,-0.06696242204128512,-0.042672603597210486,0.9968052406556213,0.0,0.0,0.0,-0.011155009269714355,-0.0010758936405181885,-0.06520366668701172
1368,911000000,imu1_frame,-0.009013207124301004,-0.06452280242536897,-0.042632247287147734,0.9969644234152786,0.0,0.0,0.0,0.035858750343322754,0.008597373962402344,-0.03618335723876953
1368,936000000,imu1_frame,-0.008623714342671486,-0.06697168556313925,-0.04267276115855926,0.9968046249586088,0.0,0.0,0.0,-0.01133275032043457,-0.0011141449213027954,-0.030023574829101562
1368,961000000,imu1_frame,-0.009012102235186817,-0.06453275823919208,-0.04263238025696384,0.9969637833346656,0.0,0.0,0.0,0.035666465759277344,0.008567288517951965,-0.03615856170654297
1368,986000000,imu1_frame,-0.008622060108698206,-0.06698152234383829,-0.04267292919922024,0.9968039711284972,0.0,0.0,0.0,-0.011522173881530762,-0.0011549219489097595,-0.029997825622558594
1369,11000000,imu1_frame,-0.009010963124249899,-0.06454293303889919,-0.04263251679682312,0.9969631291326064,0.0,0.0,0.0,0.035469889640808105,0.008536309003829956,-0.036133766174316406
1369,36000000,imu1_frame,-0.00862037175419668,-0.06699155074753459,-0.04267310063239438,0.996803304469682,0.0,0.0,0.0,-0.011715292930603027,-0.0011965259909629822,-0.02997303009033203
1369,61000000,imu1_frame,-0.009009852262070364,-0.06455279650381654,-0.04263264960294682,0.9969624948881403,0.0,0.0,0.0,0.03527951240539551,0.0085061714053154,-0.036108970642089844
1369,86000000,imu1_frame,-0.008618734847796513,-0.06700124677072039,-0.04267326668644791,0.9968026598334796,0.0,0.0,0.0,-0.011902093887329102,-0.0012368112802505493,-0.02994823455810547
1369,111000000,imu1_frame,-0.00900884872337469,-0.06456185706721662,-0.04263277044791503,0.9969619120812225,0.0,0.0,0.0,0.03510475158691406,0.008478768169879913,-0.0360870361328125
1369,136000000,imu1_frame,-0.008690880392907153,-0.06701838454410332,-0.04266868184210365,0.9968010776082418,0.0,0.0,0.0,-0.012293100357055664,0.00016031414270401,-0.06503486633300781
1369,161000000,imu1_frame,-0.009008095737194051,-0.06457448781207671,-0.04263289624015344,0.9969610954762346,0.0,0.0,0.0,0.03485977649688721,0.008453287184238434,-0.07121086120605469
1369,186000000,imu1_frame,-0.008615006267538033,-0.06702234209918428,-0.04267363978101603,0.9968012579217536,0.0,0.0,0.0,-0.012308359146118164,-0.001327797770500183,-0.029893875122070312
1369,211000000,imu1_frame,-0.011040451445021965,-0.06642374927486511,-0.04250638322558718,0.996824558961726,0.0,0.0,0.0,-0.0026650428771972656,0.007590338587760925,-0.030523300170898438
1369,236000000,imu1_frame,-0.00861751472832925,-0.06702076744681928,-0.04267345911158135,0.9968013498477009,0.0,0.0,0.0,-0.012282371520996094,-0.04033965617418289,-0.02989673614501953
1369,261000000,imu1_frame,-0.009777312496356008,-0.06483696272433892,-0.04258249122540934,0.9969389669714336,0.0,0.0,0.0,0.02914142608642578,0.023284539580345154,-0.07026481628417969
1369,286000000,imu1_frame,-0.00861244908466607,-0.06703012789218368,-0.04267385461507877,0.9968007472949709,0.0,0.0,0.0,-0.012457489967346191,-0.0013844668865203857,-0.06503105163574219
1369,311000000,imu1_frame,-0.00977507315525972,-0.06484461240079589,-0.04258268718278417,0.9969384830267578,0.0,0.0,0.0,0.028995037078857422,0.023234188556671143,-0.07024669647216797
1369,336000000,imu1_frame,-0.008461384351051796,-0.06695533893069837,-0.042683199995510644,0.9968066673140195,0.0,0.0,0.0,-0.010883569717407227,-0.004276767373085022,-0.030120849609375
1369,361000000,imu1_frame,-0.010726077448032082,-0.06591237780532277,-0.042524561137373795,0.9968611595476579,0.0,0.0,0.0,0.00750887393951416,0.04093647003173828,-0.06713581085205078
1369,386000000,imu1_frame,-0.00845858983121027,-0.06695644732428159,-0.04268339416125177,0.9968066082659429,0.0,0.0,0.0,-0.010904431343078613,-0.0043322741985321045,-0.06527423858642578
1369,411000000,imu1_frame,-0.009778304957171073,-0.06485693678157112,-0.04258254332691107,0.9969376557775755,0.0,0.0,0.0,0.02875375747680664,0.023286864161491394,-0.03505706787109375
1369,436000000,imu1_frame,-0.008603312020687044,-0.06704510830080157,-0.042674557426138356,0.9967997886354569,0.0,0.0,0.0,-0.012740612030029297,-0.0015760883688926697,-0.06499481201171875
1369,461000000,imu1_frame,-0.009774442839618255,-0.06486683440472582,-0.04258286200174397,0.9969370360886515,0.0,0.0,0.0,0.0285642147064209,0.02320292592048645,-0.0701904296875
1369,486000000,imu1_frame,-0.008598097329482343,-0.06705447901444662,-0.042674962863066414,0.9967991859502341,0.0,0.0,0.0,-0.012917876243591309,-0.0016861483454704285,-0.064971923828125
1369,511000000,imu1_frame,-0.009051638152278099,-0.06462365097848569,-0.042630268873521386,0.996957627864265,0.0,0.0,0.0,0.03387033939361572,0.009263567626476288,-0.035915374755859375
1369,536000000,imu1_frame,-0.008596944522958267,-0.06706013321268801,-0.04267507289398479,0.9967988108098136,0.0,0.0,0.0,-0.013026595115661621,-0.0017135366797447205,-0.0298004150390625
1369,561000000,imu1_frame,-0.009050614073247596,-0.06463137874404537,-0.04263038316157791,0.9969571313241299,0.0,0.0,0.0,0.033721327781677246,0.009236939251422882,-0.03589630126953125
1369,586000000,imu1_frame,-0.00859546699663433,-0.06706751966712701,-0.04267521476465715,0.9967983205230633,0.0,0.0,0.0,-0.013168692588806152,-0.0017487555742263794,-0.02978229522705078
1369,611000000,imu1_frame,-0.009049633625774675,-0.06463878895222694,-0.042630492645094255,0.9969566551214077,0.0,0.0,0.0,0.03357863426208496,0.009211421012878418,-0.035877227783203125
1369,636000000,imu1_frame,-0.008594055376515992,-0.06707458035272329,-0.042675350349690666,0.9967978518010672,0.0,0.0,0.0,-0.013304471969604492,-0.0017824023962020874,-0.029764175415039062
1369,661000000,imu1_frame,-0.009048686243642724,-0.06464586551672251,-0.04263059794383915,0.9969562003758283,0.0,0.0,0.0,0.033441781997680664,0.009186863899230957,-0.03586006164550781
1369,686000000,imu1_frame,-0.00859270091341924,-0.06708130045927727,-0.04267548009259368,0.9967974057041739,0.0,0.0,0.0,-0.01343381404876709,-0.0018146410584449768,-0.02974700927734375
1369,711000000,imu1_frame,-0.009047984142191049,-0.06465168276729243,-0.042630679312749185,0.9969558260422844,0.0,0.0,0.0,0.03332972526550293,0.009168140590190887,-0.03584575653076172
1369,736000000,imu1_frame,-0.008902654970302144,-0.06712558774096694,-0.04265557442393754,0.9967925562399998,0.0,0.0,0.0,0.024517536163330078,0.0042129456996917725,-0.0685873031616211
1369,761000000,imu1_frame,-0.008757442891036842,-0.0695973541898181,-0.042680184552835045,0.9966232574701049,0.0,0.0,0.0,-0.023296594619750977,-0.0007397755980491638,-0.06203174591064453
1369,786000000,imu1_frame,-0.008902242792123692,-0.06713236330349272,-0.04265564323248299,0.9967921006764556,0.0,0.0,0.0,0.024380922317504883,0.004199579358100891,-0.06856918334960938
1369,811000000,imu1_frame,-0.007567775391932973,-0.0650486062471695,-0.04273314919735713,0.9969379547196477,0.0,0.0,0.0,0.02683568000793457,-0.020141392946243286,-0.07047653198242188
1369,836000000,imu1_frame,-0.008906099742951453,-0.06713841622472644,-0.042655418976064875,0.9967916681464488,0.0,0.0,0.0,-0.014797210693359375,0.004269465804100037,-0.06464576721191406
1369,861000000,imu1_frame,-0.00796028516861166,-0.06485432029667874,-0.04270543766318256,0.9969487432124513,0.0,0.0,0.0,0.030284523963928223,-0.012293316423892975,-0.035694122314453125
1369,886000000,imu1_frame,-0.00890727253729623,-0.0671410557650594,-0.042655355804338616,0.9967914825819414,0.0,0.0,0.0,-0.014848947525024414,0.0042901411652565,-0.02948284149169922
1369,911000000,imu1_frame,-0.011258246100204034,-0.06630789954096182,-0.04249122469671404,0.9968304821668458,0.0,0.0,0.0,-0.0005929470062255859,0.011951327323913574,-0.03072834014892578
1369,936000000,imu1_frame,-0.008815743780563302,-0.06681764031120314,-0.04265874630841319,0.9968138828127509,0.0,0.0,0.0,-0.008503437042236328,0.0027760639786720276,-0.06551742553710938
1369,961000000,imu1_frame,-0.0075296069996440085,-0.06470581761205832,-0.042732558575971726,0.9969605762632427,0.0,0.0,0.0,0.03351891040802002,-0.020594783127307892,-0.036200523376464844
1369,986000000,imu1_frame,-0.008819922024952487,-0.06682439159169425,-0.042658505586696135,0.9968134035841328,0.0,0.0,0.0,-0.008635282516479492,0.0028518736362457275,-0.03034210205078125
1370,11000000,imu1_frame,-0.0075325471527639964,-0.06471247546131252,-0.042732401245416815,0.9969601286595474,0.0,0.0,0.0,0.033387064933776855,-0.02054290473461151,-0.03618335723876953
1370,36000000,imu1_frame,-0.008823833789420525,-0.06683058484069693,-0.04265827961896292,0.9968129634324874,0.0,0.0,0.0,-0.008758783340454102,0.002923153340816498,-0.030324935913085938
1370,61000000,imu1_frame,-0.007535640069373893,-0.06471930810278873,-0.04273223470191504,0.9969596688957991,0.0,0.0,0.0,0.03325188159942627,-0.020488187670707703,-0.03616523742675781
1370,86000000,imu1_frame,-0.008827865147873759,-0.0668369701506225,-0.0426580467239142,0.9968125095862892,0.0,0.0,0.0,-0.008885979652404785,0.002996593713760376,-0.03030681610107422
1370,111000000,imu1_frame,-0.007539109429744392,-0.0647267352570199,-0.04273204643898151,0.996959168561637,0.0,0.0,0.0,0.03310513496398926,-0.020426630973815918,-0.03614521026611328
1370,136000000,imu1_frame,-0.008832266026962559,-0.06684395908444148,-0.04265779254288304,0.9968120128419976,0.0,0.0,0.0,-0.009025335311889648,0.00307677686214447,-0.030286788940429688
1370,161000000,imu1_frame,-0.0075431716774285885,-0.06473494108139546,-0.042731823020791704,0.9969586146202625,0.0,0.0,0.0,0.032942771911621094,-0.020354121923446655,-0.03612327575683594
1370,186000000,imu1_frame,-0.008837169722443267,-0.06685178643942712,-0.042657509505059955,0.996811456577411,0.0,0.0,0.0,-0.00918114185333252,0.003166109323501587,-0.030263900756835938
1370,211000000,imu1_frame,-0.011291840460078327,-0.0664000188189905,-0.04248941916759623,0.996824047211273,0.0,0.0,0.0,-0.0024067163467407227,0.012530297040939331,-0.030475616455078125
1370,236000000,imu1_frame,-0.008803899122793526,-0.06659033495837588,-0.04265752252364511,0.9968292503846945,0.0,0.0,0.0,-0.00408482551574707,0.0027390867471694946,-0.03095722198486328
1370,261000000,imu1_frame,-0.006320397207928681,-0.0667793358953772,-0.04282505283519378,0.9968282639081666,0.0,0.0,0.0,-0.005716562271118164,-0.046028777956962585,-0.031198501586914062
1370,286000000,imu1_frame,-0.00880870146848819,-0.06658994745019506,-0.04265719823697009,0.9968292477227939,0.0,0.0,0.0,-0.004080653190612793,0.0028333663940429688,-0.03095722198486328
1370,311000000,imu1_frame,-0.006322345286598537,-0.0667802372585355,-0.042824927746976646,0.9968281965440369,0.0,0.0,0.0,-0.005735635757446289,-0.04599142074584961,-0.031195640563964844
1370,336000000,imu1_frame,-0.008810590944285516,-0.06658974323486805,-0.04265707043291578,0.9968292501352516,0.0,0.0,0.0,-0.0040781497955322266,0.0028705373406410217,-0.03095722198486328
1370,361000000,imu1_frame,-0.00632344080158164,-0.06678132798738173,-0.042824860890564476,0.9968281193959039,0.0,0.0,0.0,-0.005757689476013184,-0.04597090929746628,-0.031192779541015625
1370,386000000,imu1_frame,-0.008811606085882957,-0.06658960257649824,-0.04265700168345366,0.9968292535004524,0.0,0.0,0.0,-0.004076242446899414,0.0028905123472213745,-0.03095722198486328
1370,411000000,imu1_frame,-0.007905627949645014,-0.06890508549342281,-0.04273144432861312,0.996676283406732,0.0,0.0,0.0,-0.04824197292327881,-0.016817383468151093,-0.06027698516845703
1370,436000000,imu1_frame,-0.008696403187063677,-0.06655967497214253,-0.04266484352358013,0.9968319283441514,0.0,0.0,0.0,-0.0034044981002807617,0.0006611719727516174,-0.03107452392578125
1370,461000000,imu1_frame,-0.007893464227804292,-0.06892282668789014,-0.04273236122538493,0.9966751138098806,0.0,0.0,0.0,-0.048578500747680664,-0.017070427536964417,-0.025075912475585938
1370,486000000,imu1_frame,-0.008689768017199041,-0.06657934465901016,-0.04266540328188727,0.9968306486858125,0.0,0.0,0.0,-0.0037806034088134766,0.0005145519971847534,-0.031024932861328125
1370,511000000,imu1_frame,-0.00892143085411263,-0.0690507061210885,-0.04266419205954594,0.9966605112933895,0.0,0.0,0.0,-0.051894187927246094,0.0029390379786491394,-0.05954933166503906
1370,536000000,imu1_frame,-0.008690593981308383,-0.06658806506404588,-0.04266539887961242,0.9968300591904931,0.0,0.0,0.0,-0.003950715065002441,0.000523298978805542,-0.06615829467773438
1370,561000000,imu1_frame,-0.0073625907973412065,-0.06854759566913396,-0.0427657811842865,0.9967036206136856,0.0,0.0,0.0,-0.040873050689697266,-0.027139872312545776,-0.02624225616455078
1370,586000000,imu1_frame,-0.008754767514253397,-0.06649317728971908,-0.042660541066423176,0.9968360395047969,0.0,0.0,0.0,-0.0021615028381347656,0.0018601194024085999,-0.03122711181640625
1370,611000000,imu1_frame,-0.007357758327444773,-0.06855909097668668,-0.04276617145237702,0.9967028489054053,0.0,0.0,0.0,-0.041085243225097656,-0.027244724333286285,-0.026213645935058594
1370,636000000,imu1_frame,-0.00874790566047768,-0.06650351287515974,-0.04266106140570444,0.9968353879962115,0.0,0.0,0.0,-0.002356290817260742,0.00171700119972229,-0.031203269958496094
1370,661000000,imu1_frame,-0.00734917379576921,-0.06856819194459286,-0.04276679881824574,0.9967022592614149,0.0,0.0,0.0,-0.04125475883483887,-0.02742048352956772,-0.02619171142578125
1370,686000000,imu1_frame,-0.008740983185399601,-0.06651390280419268,-0.04266158615373746,0.9968347330493427,0.0,0.0,0.0,-0.002552509307861328,0.00157272070646286,-0.031177520751953125
1370,711000000,imu1_frame,-0.007340729972007324,-0.06857608249293243,-0.0427674097241218,0.9967017524108651,0.0,0.0,0.0,-0.04140114784240723,-0.0275924950838089,-0.026172637939453125
1370,736000000,imu1_frame,-0.008734674844866312,-0.06652336875149374,-0.04266206429327777,0.9968341362210383,0.0,0.0,0.0,-0.0027306079864501953,0.0014411434531211853,-0.03115558624267578
1370,761000000,imu1_frame,-0.007331887328808808,-0.06858519956119909,-0.04276805447644697,0.9967011625084259,0.0,0.0,0.0,-0.04157054424285889,-0.027773350477218628,-0.02615070343017578
1370,786000000,imu1_frame,-0.008727651592415439,-0.066533853823801,-0.04266259631443328,0.9968334751947017,0.0,0.0,0.0,-0.002928495407104492,0.0012947246432304382,-0.03113079071044922
1370,811000000,imu1_frame,-0.0073224328470374135,-0.06859388348551636,-0.042768737666795294,0.9967006050986248,0.0,0.0,0.0,-0.04173123836517334,-0.027965769171714783,-0.02613067626953125
1370,836000000,imu1_frame,-0.008527254177218823,-0.06621171712149068,-0.04277558450318783,0.9968518163811668,0.013671875,0.02734375,-0.009765625,0.0034731626510620117,-0.0024846047163009644,-0.03203392028808594
1370,861000000,imu1_frame,-0.006363165180987587,-0.06436158957298728,-0.04301147547757737,0.9969789911997944,0.013671875,0.02734375,-0.009765625,0.005988001823425293,-0.008231006562709808,-0.03738594055175781
1370,886000000,imu1_frame,-0.007667245176297473,-0.06562407614295482,-0.04328916069185597,0.9968754899927998,0.021484375,0.05078125,-0.03125,-0.019617199897766113,0.015749655663967133,-0.03382110595703125
1370,911000000,imu1_frame,-0.009507135405062076,-0.06376304534298469,-0.04351702071275987,0.9969704897003039,0.021484375,0.05078125,-0.03125,0.014926433563232422,0.01775433123111725,-0.07306575775146484
1370,936000000,imu1_frame,-0.006890996967276414,-0.06412421305248116,-0.04404928418022725,0.9969454649199255,0.021484375,0.05078125,-0.03125,0.010074853897094727,0.0009495168924331665,-0.037845611572265625
1370,961000000,imu1_frame,-0.006818410919934344,-0.06648127100098426,-0.04398229764575739,0.9967945161227667,0.005859375,0.009765625,0.005859375,-0.035588979721069336,-0.0024276822805404663,-0.03184795379638672
1370,986000000,imu1_frame,-0.007104346033087333,-0.06431997517159556,-0.044023461884589075,0.9969324971456511,-0.013671875,-0.025390625,-0.00390625,0.006093025207519531,0.00496944785118103,-0.03729534149169922
1371,11000000,imu1_frame,-0.0048154165650709044,-0.06427174022066535,-0.04423907372887063,0.9969397471903323,-0.013671875,-0.025390625,-0.00390625,-0.06914985179901123,0.3077920489013195,-0.03404426574707031
1371,36000000,imu1_frame,-0.0065800713553451195,-0.0664938563566107,-0.04419855378765247,0.9967857129648604,-0.013671875,-0.025390625,-0.00390625,-0.0004898309707641602,-0.007364608347415924,-0.06703376770019531
1371,61000000,imu1_frame,-0.008374740665302497,-0.06823244355356146,-0.044136423415847094,0.9966575005956437,-0.001953125,0.0,-0.00390625,-0.03573441505432129,0.02616307884454727,-0.06193065643310547
1371,86000000,imu1_frame,-0.006594317429750873,-0.06650757876455721,-0.04422512964491131,0.9967835245691026,0.0,0.0,0.001953125,-0.0007737874984741211,-0.0071335285902023315,-0.06699371337890625
1371,111000000,imu1_frame,-0.009066771143321984,-0.0668630689817174,-0.04403669488151913,0.9967486609829445,0.0,0.0,0.001953125,-0.009756207466125488,0.0058168694376945496,-0.06531047821044922
1371,136000000,imu1_frame,-0.006594774721676364,-0.06651692477890946,-0.04422515736725309,0.9967828966832091,0.0,0.0,-0.001953125,-0.000954747200012207,-0.042289093136787415,-0.0669698715209961
1371,161000000,imu1_frame,-0.009065483084208507,-0.06686263767007107,-0.044085230094950245,0.9967465561454055,0.0,0.0,-0.001953125,-0.009752750396728516,0.005728334188461304,-0.06531238555908203
1371,186000000,imu1_frame,-0.006595920319877347,-0.06653480087861632,-0.044273344446397474,0.9967795569125137,0.0,-0.001953125,-0.001953125,-0.0013058185577392578,-0.04234533756971359,-0.06692314147949219
1371,211000000,imu1_frame,-0.008350241574105856,-0.06831364202458491,-0.04418634746239412,0.9966499317598548,0.0,-0.001953125,-0.001953125,0.001769423484802246,-0.00960841029882431,-0.0656280517578125
1371,236000000,imu1_frame,-0.009085167781059758,-0.06597567758358976,-0.04414717148336307,0.9968027372272785,0.0,-0.001953125,-0.001953125,0.007425546646118164,0.006806530058383942,-0.06760883331298828
1371,261000000,imu1_frame,-0.008334834354751006,-0.06834061139297347,-0.04418727502364862,0.996648170668415,0.0,0.0,0.001953125,-0.037802815437316895,-0.009933412075042725,-0.06165504455566406
1371,286000000,imu1_frame,-0.009104092237156717,-0.06600449595708674,-0.044149115411482,0.9968005706390682,-0.001953125,-0.001953125,-0.001953125,0.00684964656829834,0.007147543132305145,-0.06752681732177734
1371,311000000,imu1_frame,-0.007929438728687233,-0.0682033921650232,-0.04426784347312632,0.9966573028543316,-0.001953125,-0.001953125,-0.001953125,-0.03480422496795654,-0.0178186297416687,-0.0269927978515625
1371,336000000,imu1_frame,-0.00929656595131624,-0.06614123542052726,-0.04419106134699928,0.9967878715833098,-0.001953125,-0.001953125,-0.001953125,0.004028439521789551,0.010723240673542023,-0.06710433959960938
1371,361000000,imu1_frame,-0.007900320297177429,-0.06820115506516726,-0.04427580262846581,0.9966573336350785,-0.001953125,-0.001953125,0.001953125,-0.03473687171936035,-0.018394559621810913,-0.062165260314941406
1371,386000000,imu1_frame,-0.009276122731642147,-0.06616088329141707,-0.044195258661725106,0.9967865720308386,0.0,-0.001953125,-0.001953125,0.003664374351501465,0.01030227541923523,-0.0670614242553711
1371,411000000,imu1_frame,-0.007867345878079185,-0.0682311707691139,-0.04432608137722685,0.9966533051738955,0.0,-0.001953125,-0.001953125,-0.035295724868774414,-0.019130609929561615,-0.062094688415527344
1371,436000000,imu1_frame,-0.009238969026115656,-0.0662011559262533,-0.04419412394983823,0.9967842935227603,0.001953125,-0.001953125,0.001953125,0.0029147863388061523,0.009544625878334045,-0.0669698715209961
1371,461000000,imu1_frame,-0.007829663298577318,-0.068286280394656,-0.044273363433961245,0.9966521708062135,0.001953125,-0.001953125,0.001953125,-0.03632688522338867,-0.01984231173992157,-0.061959266662597656
1371,486000000,imu1_frame,-0.009243492742797586,-0.06622684109413648,-0.044193730581702964,0.9967825628179285,-0.001953125,0.0,-0.001953125,0.0024129152297973633,0.009610749781131744,-0.06690311431884766
1371,511000000,imu1_frame,-0.007307716259387522,-0.06776637880041309,-0.04435994221814128,0.9966877699228351,-0.001953125,0.0,-0.001953125,-0.02580714225769043,-0.02967032790184021,-0.02834033966064453
1371,536000000,imu1_frame,-0.008391265071866461,-0.06552527023784648,-0.0443038391150734,0.9968315782871331,-0.001953125,0.0,-0.001953125,-0.018418550491333008,-0.006521210074424744,-0.03384685516357422
1371,561000000,imu1_frame,-0.009421059221670972,-0.06326070859830464,-0.044250784836601956,0.9969710098253243,-0.001953125,0.0,-0.001953125,0.02465236186981201,0.01559700071811676,-0.03918933868408203
1371,586000000,imu1_frame,-0.008412476649710114,-0.06551658169364026,-0.04430874561680315,0.9968317525147681,-0.001953125,0.0,0.001953125,-0.0182645320892334,-0.00610698014497757,-0.03386211395263672
1371,611000000,imu1_frame,-0.00918021519502227,-0.06787915439786636,-0.04424995819834342,0.9966694964965309,-0.001953125,0.0,0.001953125,-0.02958238124847412,0.00685516744852066,-0.06259441375732422
1371,636000000,imu1_frame,-0.008491649540614307,-0.06550921000670931,-0.04426137463540144,0.9968336701816212,-0.001953125,0.0,0.001953125,0.0169677734375,-0.004496537148952484,-0.033855438232421875
1371,661000000,imu1_frame,-0.009126048444606993,-0.06789829558866133,-0.04422953409983154,0.9966695967115948,0.001953125,0.0,0.0,-0.029904723167419434,0.005810476839542389,-0.027406692504882812
1371,686000000,imu1_frame,-0.008529561003503525,-0.06547738182670118,-0.04430745445666409,0.9968333905612204,-0.001953125,0.001953125,-0.00390625,0.0175478458404541,-0.0037893205881118774,-0.03392314910888672
1371,711000000,imu1_frame,-0.009077553760907244,-0.06787259202128874,-0.04433658960370109,0.9966670337140396,-0.001953125,0.001953125,-0.00390625,-0.02937769889831543,0.004745423793792725,-0.06264781951904297
1371,736000000,imu1_frame,-0.008503244926257966,-0.06549026097957054,-0.0443609726541895,0.9968303891072574,0.0,-0.001953125,0.0,0.01731419563293457,-0.004382222890853882,-0.06905555725097656
1371,761000000,imu1_frame,-0.009142774124003699,-0.06790748795496444,-0.044331910675760734,0.9966642686766695,0.0,-0.001953125,0.0,-0.030109643936157227,0.005991540849208832,-0.027376174926757812
1371,786000000,imu1_frame,-0.008513370505106137,-0.06553890570395501,-0.04438423910713332,0.9968260699242629,0.0,-0.001953125,-0.001953125,0.016359448432922363,-0.004257649183273315,-0.033771514892578125
1371,811000000,imu1_frame,-0.009176726589403626,-0.06317918784021277,-0.044351070927452094,0.9969740018779538,0.0,-0.001953125,-0.001953125,0.026430726051330566,0.010782681405544281,-0.03947925567626953
1371,836000000,imu1_frame,-0.008941587410045759,-0.06567152949650225,-0.04440570474234864,0.9968126361631428,0.0,-0.001953125,-0.001953125,0.013422369956970215,0.0039408206939697266,-0.06844139099121094
1371,861000000,imu1_frame,-0.008732478399652325,-0.06813534903732316,-0.04441323810757125,0.996648775804878,-0.001953125,0.0,0.001953125,-0.034186720848083496,-0.002310238778591156,-0.06206989288330078
1371,886000000,imu1_frame,-0.0089175809994566,-0.06569351332765029,-0.04438619625400922,0.9968122715124894,0.0,-0.001953125,0.0,0.013013362884521484,0.0034794285893440247,-0.06839370727539062
1371,911000000,imu1_frame,-0.008590558065594507,-0.06817566362611868,-0.04442229531914649,0.9966468486278571,0.0,-0.001953125,0.0,-0.03484761714935303,-0.005122467875480652,-0.026854515075683594
1371,936000000,imu1_frame,-0.00902398003105252,-0.06576195543529441,-0.04437871523891077,0.9968071341214754,0.0,-0.001953125,0.0,0.011595845222473145,0.005501903593540192,-0.06818008422851562
1371,961000000,imu1_frame,-0.008576108155983494,-0.06817713298194945,-0.044447508467691056,0.9966457484473974,0.0,0.001953125,-0.001953125,-0.03486669063568115,-0.0054390206933021545,-0.062010765075683594
1371,986000000,imu1_frame,-0.009035909906378052,-0.0657439995342232,-0.044402316424480975,0.9968071594614216,0.0,0.0,0.0,0.01193082332611084,0.005719609558582306,-0.0682220458984375
1372,11000000,imu1_frame,-0.008575374978548605,-0.06818006205254633,-0.04444757460169378,0.9966455514346688,0.0,0.0,0.0,-0.03492271900177002,-0.005455963313579559,-0.06200408935546875
1372,36000000,imu1_frame,-0.009060904413598352,-0.0657703098238298,-0.04440382097961372,0.996805129922241,-0.001953125,-0.001953125,0.0,0.011399149894714355,0.006181493401527405,-0.068145751953125
1372,61000000,imu1_frame,-0.008534756643412444,-0.06816923625955262,-0.044429349156686726,0.9966474532603494,0.0,0.001953125,0.001953125,-0.03467607498168945,-0.006213277578353882,-0.062046051025390625
1372,86000000,imu1_frame,-0.009114033390193893,-0.0657238450214264,-0.044382936912783645,0.9968086403628118,-0.00390625,0.001953125,0.0,0.012257695198059082,0.0072844624519348145,-0.06824588775634766
1372,111000000,imu1_frame,-0.008543534117127391,-0.0680980201853175,-0.04444202945272818,0.9966516812255686,-0.00390625,0.001953125,0.0,-0.03330409526824951,-0.005996584892272949,-0.06223297119140625
1372,136000000,imu1_frame,-0.009003894643611694,-0.06563362498187965,-0.04440367526683351,0.9968146621994393,-0.00390625,0.001953125,0.0,0.014099597930908203,0.005191154778003693,-0.03336048126220703
1372,161000000,imu1_frame,-0.008440691580508902,-0.06808103133189657,-0.04440049481126597,0.9966555693713566,0.00390625,-0.001953125,0.00390625,-0.0328822135925293,-0.007929451763629913,-0.02715587615966797
1372,186000000,imu1_frame,-0.008962732064863328,-0.06567707050679025,-0.044369106306011014,0.9968137109054959,0.00390625,0.0,-0.001953125,0.013296127319335938,0.004395633935928345,-0.03326416015625
1372,211000000,imu1_frame,-0.008468999189771656,-0.0681182441715143,-0.044434175493442,0.9966512855116034,0.00390625,0.0,-0.001953125,-0.033631205558776855,-0.007455863058567047,-0.027047157287597656
1372,236000000,imu1_frame,-0.009084849791921718,-0.06573535703739108,-0.04439638402779997,0.9968075488401366,0.00390625,0.0,-0.001953125,0.012057304382324219,0.006688401103019714,-0.06822681427001953
1372,261000000,imu1_frame,-0.008500249489118759,-0.06815092964554972,-0.044422405819015104,0.9966493096412201,0.001953125,0.0,0.001953125,-0.03429079055786133,-0.00686008483171463,-0.062107086181640625
1372,286000000,imu1_frame,-0.009120598755594473,-0.06572166221039988,-0.04437001261515357,0.996809299603075,-0.001953125,0.001953125,0.0,0.01229560375213623,0.007431022822856903,-0.06824970245361328
1372,311000000,imu1_frame,-0.008511894727895456,-0.06809325234802609,-0.04442841327163547,0.9966528847733165,-0.001953125,0.001953125,0.0,-0.03318285942077637,-0.006590530276298523,-0.062255859375
1372,336000000,imu1_frame,-0.009115196188132097,-0.06571704155067805,-0.0443736143128199,0.9968094933341552,0.0,-0.001953125,0.0,0.012389421463012695,0.007325179874897003,-0.06826305389404297
1372,361000000,imu1_frame,-0.008499845095609125,-0.06814157145571346,-0.04440471508389612,0.9966507413087167,0.0,-0.001953125,0.001953125,-0.034107327461242676,-0.006835997104644775,-0.06213092803955078
1372,386000000,imu1_frame,-0.009077994027298378,-0.06576391084096886,-0.044324071040034996,0.9968089459780041,0.001953125,-0.001953125,0.001953125,0.011518120765686035,0.006623208522796631,-0.06815624237060547
1372,411000000,imu1_frame,-0.008484566666768356,-0.06820234192309747,-0.044350523150815016,0.9966491277179401,0.001953125,-0.001953125,0.001953125,-0.035266757011413574,-0.007114440202713013,-0.061974525451660156
1372,436000000,imu1_frame,-0.00892708325074402,-0.06579758417514193,-0.04427904310350362,0.9968100879521572,0.001953125,-0.001953125,0.001953125,0.010999202728271484,0.003711700439453125,-0.03296661376953125
1372,461000000,imu1_frame,-0.008533103270768791,-0.06823653923198007,-0.04429868367463042,0.996648678064095,-0.001953125,0.0,0.001953125,-0.035965561866760254,-0.006129443645477295,-0.02671051025390625
1372,486000000,imu1_frame,-0.008867862769249968,-0.06581818054404681,-0.044231046388167994,0.9968113877034033,0.00390625,-0.001953125,0.001953125,0.010655760765075684,0.002601936459541321,-0.03293418884277344
1372,511000000,imu1_frame,-0.00856598360942384,-0.06830650688701505,-0.044234773676987624,0.9966464417432306,0.00390625,-0.001953125,0.001953125,-0.03734326362609863,-0.005464516580104828,-0.026513099670410156
1372,536000000,imu1_frame,-0.008934248190860436,-0.06589490121081606,-0.04416475461630327,0.9968086655187958,0.00390625,-0.001953125,0.001953125,0.009118437767028809,0.003914035856723785,-0.06786918640136719
1372,561000000,imu1_frame,-0.008622535125911943,-0.06835014148701603,-0.04417587252874959,0.9966455750832544,0.0,0.0,0.001953125,-0.038231492042541504,-0.004321962594985962,-0.06153392791748047
1372,586000000,imu1_frame,-0.008928236454293808,-0.06592227755983036,-0.044189276156687766,0.9968058225090225,0.0,-0.001953125,-0.00390625,0.008589625358581543,0.003741137683391571,-0.06780052185058594
1372,611000000,imu1_frame,-0.008404843295741584,-0.06837146686920358,-0.04428676620077039,0.9966410504624048,0.0,-0.001953125,-0.00390625,-0.038471221923828125,-0.008730292320251465,-0.026393890380859375
1372,636000000,imu1_frame,-0.008946444099705709,-0.0659494565054982,-0.0442881272845913,0.996799474370961,-0.001953125,0.0,-0.00390625,0.008035540580749512,0.003943897783756256,-0.03256797790527344
1372,661000000,imu1_frame,-0.008287319057075604,-0.06836160425198183,-0.04436082635494862,0.996639417488616,0.005859375,0.0,-0.001953125,-0.03818690776824951,-0.011110566556453705,-0.026457786560058594
1372,686000000,imu1_frame,-0.00899106546591957,-0.06600285531677166,-0.04430296184704001,0.9967948793023571,-0.001953125,-0.001953125,0.0,0.006959438323974609,0.004747167229652405,-0.03241539001464844
1372,711000000,imu1_frame,-0.008525258414178526,-0.06845476664807099,-0.0443516024109034,0.9966314264840913,-0.001953125,-0.001953125,0.0,-0.04019618034362793,-0.006544902920722961,-0.06128692626953125
1372,736000000,imu1_frame,-0.008950176834451663,-0.06602251643486444,-0.0442812523797901,0.9967949098715931,0.001953125,0.0,0.001953125,0.006615281105041504,0.003961488604545593,-0.0675344467163086
1372,761000000,imu1_frame,-0.008255275051436623,-0.06841000051377245,-0.04431425442389307,0.9966384344978801,0.001953125,0.0,0.001953125,-0.0390932559967041,-0.011714652180671692,-0.026338577270507812
1372,786000000,imu1_frame,-0.008978219243614171,-0.06605860939288394,-0.04423092659848806,0.9967945008057234,-0.001953125,-0.001953125,0.001953125,0.00589752197265625,0.00454152375459671,-0.03227519989013672
1372,811000000,imu1_frame,-0.00850468074473903,-0.06850665194748123,-0.04425584176147615,0.9966322940354482,-0.001953125,-0.001953125,0.001953125,-0.04117417335510254,-0.00686240941286087,-0.06115436553955078
1372,836000000,imu1_frame,-0.008891463132415652,-0.06608371877556503,-0.04419464072054879,0.9967952235678793,-0.001953125,-0.001953125,0.001953125,0.0054885149002075195,0.0028764232993125916,-0.032240867614746094
1372,861000000,imu1_frame,-0.008330843387181397,-0.06853841052988341,-0.04426391894381154,0.9966312200659937,0.00390625,-0.001953125,-0.001953125,-0.04164254665374756,-0.010287471115589142,-0.025970458984375
1372,886000000,imu1_frame,-0.008920051686806957,-0.06612590528651173,-0.04418948624250218,0.9967923989645826,-0.001953125,0.0,0.001953125,0.004646420478820801,0.003403186798095703,-0.03212165832519531
1372,911000000,imu1_frame,-0.008249921708854574,-0.0685037061633133,-0.04422726193288935,0.996635906605621,-0.001953125,0.0,0.001953125,-0.04089689254760742,-0.011784009635448456,-0.02608966827392578
1372,936000000,imu1_frame,-0.008940503616774606,-0.06611700393357911,-0.044146178924360194,0.9967947251426964,-0.001953125,0.0,0.001953125,0.004806637763977051,0.003865748643875122,-0.03213787078857422
1372,961000000,imu1_frame,-0.008175070329880763,-0.068491724364895,-0.04421425817394958,0.9966379238684188,-0.001953125,-0.001953125,0.0,-0.04059946537017822,-0.013214126229286194,-0.02614593505859375
1372,987000000,imu1_frame,-0.009009360573997871,-0.06600948969936477,-0.04412586142239996,0.9968021303375149,-0.00390625,0.001953125,0.001953125,0.0068361759185791016,0.005327686667442322,-0.03239154815673828
1373,11000000,imu1_frame,-0.008182664610656674,-0.06819831563930169,-0.044177292402320274,0.9966596212247347,-0.00390625,0.001953125,0.001953125,-0.034912943840026855,-0.012759849429130554,-0.026927947998046875
1373,36000000,imu1_frame,-0.009044289324952643,-0.06589903751181202,-0.044130095425702016,0.9968089347329013,0.0,-0.001953125,-0.001953125,0.008949041366577148,0.006099246442317963,-0.03266429901123047
1373,61000000,imu1_frame,-0.00815995667679095,-0.06824097995595975,-0.04422694860516521,0.9966546848225614,0.0,-0.001953125,-0.001953125,-0.03572571277618408,-0.013306118547916412,-0.026821136474609375
1373,86000000,imu1_frame,-0.009038599511134277,-0.06596912966457773,-0.04413005562581068,0.9968043518367274,0.0,-0.00390625,0.001953125,0.007594108581542969,0.00592716783285141,-0.032485008239746094
1373,111000000,imu1_frame,-0.008061323371007581,-0.06828668786256673,-0.044229742665364974,0.9966522328224746,0.001953125,-0.001953125,-0.001953125,-0.03652811050415039,-0.015271306037902832,-0.02673053741455078
1373,136000000,imu1_frame,-0.009005577798610413,-0.0660305203875753,-0.04417396787414979,0.9967986409040257,0.001953125,-0.001953125,-0.001953125,0.006426215171813965,0.00517311692237854,-0.03233909606933594
1373,161000000,imu1_frame,-0.008089645098705321,-0.06833566537452145,-0.04424878286512515,0.9966478012291772,0.0,0.0,0.0,-0.037503838539123535,-0.014788046479225159,-0.026590347290039062
1373,186000000,imu1_frame,-0.009004023096529623,-0.06603480874291812,-0.04417409702026522,0.9967983651445298,0.0,0.0,0.0,0.006343960762023926,0.005138926208019257,-0.03232860565185547
1373,211000000,imu1_frame,-0.0065422926052717744,-0.06564255709791136,-0.04433531750533257,0.9968363119022178,0.0,0.0,0.0,-0.0191115140914917,0.07059092074632645,-0.03408622741699219
1373,236000000,imu1_frame,-0.008634324968778171,-0.06429097732993957,-0.04419217681431491,0.9969148259378569,0.0,0.0,0.0,-0.033725738525390625,-0.039624422788619995,-0.07596015930175781
1373,261000000,imu1_frame,-0.01073070463738031,-0.06298702551745781,-0.044023953098107554,0.996985144396878,0.0,-0.00390625,0.001953125,-0.010178089141845703,0.002575710415840149,-0.07841110229492188
1373,286000000,imu1_frame,-0.00823892517437909,-0.06274986664060558,-0.04415249866050709,0.9970181198005337,0.001953125,-0.001953125,0.001953125,-0.003473997116088867,-0.04593288153409958,-0.07991790771484375
1373,311000000,imu1_frame,-0.0085627874712869,-0.06522945161873446,-0.04411787406269419,0.9968577684406282,0.001953125,-0.001953125,0.001953125,0.022355318069458008,-0.0026817768812179565,-0.0697031021118164
1373,336000000,imu1_frame,-0.008944382581520869,-0.06767368441191446,-0.04408233819642289,0.9966930409697302,0.0,0.0,0.001953125,-0.025377392768859863,0.002664238214492798,-0.06322193145751953
1373,361000000,imu1_frame,-0.008571237897322314,-0.0652280715994422,-0.04406883412715767,0.9968599552670367,0.0,0.0,0.001953125,0.02237546443939209,-0.002452552318572998,-0.034546852111816406
1373,386000000,imu1_frame,-0.008943338049757787,-0.06770170996823649,-0.04403383853609521,0.9966932909554883,0.0,-0.001953125,0.001953125,-0.02591395378112793,0.002683967351913452,-0.027991294860839844
1373,411000000,imu1_frame,-0.008571371131573729,-0.06525669536929508,-0.044068721411183474,0.9968580857371762,0.0,0.0,-0.001953125,0.0218198299407959,-0.0024748072028160095,-0.034473419189453125
1373,436000000,imu1_frame,-0.008938060612653979,-0.06770275699173983,-0.044082638688069976,0.9966911099907028,0.0,0.0,-0.001953125,-0.02593553066253662,0.0025152787566184998,-0.06314754486083984
1373,461000000,imu1_frame,-0.00857801256478459,-0.0652793473235673,-0.04411657166768518,0.996854429000412,0.0,-0.001953125,-0.001953125,0.021369576454162598,-0.0024266019463539124,-0.06956958770751953
1373,486000000,imu1_frame,-0.008946351703007272,-0.06772507887781998,-0.04410615231472901,0.9966884788188279,0.0,0.0,0.0,-0.026378393173217773,0.0026260092854499817,-0.06308555603027344
1373,511000000,imu1_frame,-0.008587576607921013,-0.06527889074003557,-0.044115916653472476,0.9968544055425432,0.0,0.0,0.0,0.0213700532913208,-0.0022389665246009827,-0.03441143035888672
1373,536000000,imu1_frame,-0.00894681043880223,-0.0677281606492467,-0.044106139397380006,0.9966882658612475,0.0,0.0,0.0,-0.026438593864440918,0.0026322752237319946,-0.02792072296142578
1373,561000000,imu1_frame,-0.008613454656996266,-0.06530533907676914,-0.04411734315247694,0.9968523868257059,-0.001953125,-0.001953125,0.0,0.020834803581237793,-0.0017597153782844543,-0.03433513641357422
1373,586000000,imu1_frame,-0.008907322789692048,-0.06776048075552699,-0.044108748967156164,0.9966863072767942,0.001953125,0.0,0.0,-0.027032017707824707,0.0018312782049179077,-0.027849197387695312
1373,611000000,imu1_frame,-0.008629554000857029,-0.06530452954648996,-0.044109716613352924,0.9968526381159593,0.001953125,0.0,0.0,0.02083766460418701,-0.0014355108141899109,-0.069488525390625
1373,636000000,imu1_frame,-0.008945796256601416,-0.06778408398190948,-0.044130173139480505,0.9966834093666597,-0.001953125,-0.001953125,-0.001953125,-0.02752518653869629,0.002531610429286957,-0.06292915344238281
1373,661000000,imu1_frame,-0.00863264134094908,-0.0653596643321003,-0.04416424965236269,0.9968465833991296,-0.001953125,-0.001953125,-0.001953125,0.019759416580200195,-0.0014935806393623352,-0.03419017791748047
1373,686000000,imu1_frame,-0.008932692644433629,-0.06783982652884146,-0.044182550210432395,0.996677413808279,0.0,-0.001953125,-0.001953125,-0.02860081195831299,0.002157732844352722,-0.027629852294921875
1373,711000000,imu1_frame,-0.008665665711220696,-0.0653605237315553,-0.044189561723719226,0.9968451187671953,-0.001953125,0.001953125,0.0,0.019711732864379883,-0.000883445143699646,-0.03417682647705078
1373,736000000,imu1_frame,-0.008927913923014251,-0.06779753878713218,-0.044189723815899355,0.9966800160515237,-0.001953125,0.001953125,0.0,-0.027777552604675293,0.00209210067987442,-0.02774333953857422
1373,761000000,imu1_frame,-0.00866306665712037,-0.06531807225130082,-0.04417235319960508,0.9968486865749874,-0.001953125,0.001953125,0.001953125,0.020539522171020508,-0.0008748024702072144,-0.034285545349121094
1373,786000000,imu1_frame,-0.008923939201159012,-0.0678042918863294,-0.044148109455247296,0.9966814364391738,-0.001953125,-0.001953125,0.001953125,-0.027900338172912598,0.002064235508441925,-0.027727127075195312
1373,811000000,imu1_frame,-0.008665113658094649,-0.06537310227866423,-0.04413004749932516,0.9968469351969051,-0.001953125,-0.001953125,0.001953125,0.019475102424621582,-0.0008287057280540466,-0.034145355224609375
1373,836000000,imu1_frame,-0.008926609609425339,-0.0678590822450243,-0.04410575585536226,0.9966795587841516,-0.001953125,-0.001953125,0.001953125,-0.028959989547729492,0.0021248385310173035,-0.02758026123046875
1373,861000000,imu1_frame,-0.008333920824364535,-0.06471545343306938,-0.04495374118482334,0.9968558657118558,0.017578125,0.056640625,-0.068359375,0.032430052757263184,-0.007755398750305176,-0.03592681884765625
1373,886000000,imu1_frame,-0.009158940408005077,-0.06722800894764903,-0.046694343935740644,0.9966023012555952,-0.0234375,-0.009765625,-0.140625,-0.017227530479431152,0.003779679536819458,-0.029165267944335938
1373,911000000,imu1_frame,-0.01163345293903866,-0.06637914830753781,-0.048303388649874,0.9965566988825173,-0.0234375,-0.009765625,-0.140625,-0.00325930118560791,0.01159946620464325,-0.03037548065185547
1373,936000000,imu1_frame,-0.008912456292040093,-0.06674872195225226,-0.04593721692216889,0.9966719361665747,0.033203125,-0.005859375,0.201171875,-0.007627129554748535,-0.038646817207336426,-0.03050708770751953
1373,961000000,imu1_frame,-0.011016302856338601,-0.0676547278187911,-0.04324981718039488,0.9967100542228945,0.033203125,-0.005859375,0.201171875,0.051487088203430176,-0.14725469052791595,-0.06246376037597656
1373,986000000,imu1_frame,-0.008520253017944634,-0.06666974203794407,-0.04085920641878893,0.9969017384055114,0.033203125,-0.005859375,0.201171875,-0.005191326141357422,-0.0004982799291610718,-0.030846595764160156
1374,11000000,imu1_frame,-0.010038604956377236,-0.06471554261096502,-0.0407248797067205,0.9970218699346427,-0.001953125,0.0,0.001953125,0.03154933452606201,0.03084374964237213,-0.03531455993652344
1374,36000000,imu1_frame,-0.008538489313850458,-0.06667568270120404,-0.040816036678068546,0.996902953494702,-0.001953125,0.0,0.001953125,-0.00531315803527832,-9.144842624664307e-05,-0.03082561492919922
1374,61000000,imu1_frame,-0.00930928061571898,-0.0643666978324071,-0.040771719053055766,0.9970496138257254,0.001953125,0.0,-0.001953125,0.038884520530700684,0.01685379445552826,-0.03647041320800781
1374,86000000,imu1_frame,-0.008596290536896855,-0.0667488210506897,-0.04085481795886848,0.9968959737740424,0.001953125,0.0,-0.001953125,-0.006781101226806641,0.0009247064590454102,-0.06577205657958984
1374,111000000,imu1_frame,-0.008487534388282338,-0.06923698906643315,-0.04089755417348219,0.9967254341932131,0.001953125,0.0,-0.001953125,-0.054956912994384766,-0.0032676681876182556,-0.05919456481933594
1374,136000000,imu1_frame,-0.00853301236221235,-0.06676687090741486,-0.040901118717882955,0.9968934101180952,0.001953125,0.0,-0.001953125,-0.0070912837982177734,-0.00038323551416397095,-0.03058910369873047
1374,161000000,imu1_frame,-0.009083755352850127,-0.06433033546584238,-0.04085666481304486,0.9970505635462508,-0.00390625,0.001953125,0.0,0.039757370948791504,0.0123806893825531,-0.03664398193359375
1374,186000000,imu1_frame,-0.008582950521410908,-0.06672020296102738,-0.040911035746814955,0.9968956989732222,-0.00390625,0.001953125,0.0,-0.0062220096588134766,0.0006142333149909973,-0.030694007873535156
1374,211000000,imu1_frame,-0.008233846959328136,-0.06427152356081207,-0.04092685264448489,0.9970588587220108,-0.00390625,0.001953125,0.0,0.04156029224395752,-0.004223495721817017,-0.037078857421875
1374,236000000,imu1_frame,-0.008720200755459807,-0.06683679130948338,-0.032420305418023064,0.9971989396418546,0.033203125,-0.013671875,0.6796875,-0.007552027702331543,0.014340057969093323,-0.030344009399414062
1374,261000000,imu1_frame,-0.006334759226074423,-0.06669828401702348,-0.03451252745739332,0.997156003433382,-0.013671875,-0.029296875,-0.154296875,-0.0035475492477416992,-0.034802936017513275,-0.03140735626220703
1374,286000000,imu1_frame,-0.003941561367508042,-0.06658144862218204,-0.036606924190450724,0.9971014531604457,-0.013671875,-0.029296875,-0.154296875,-0.07396435737609863,0.2596486546099186,-0.032192230224609375
1374,311000000,imu1_frame,-0.0006814627568414917,-0.06584328284296087,-0.03913558816627243,0.9970619857620954,0.052734375,0.017578125,-0.193359375,-0.057227134704589844,0.19338082894682884,-0.034397125244140625
1374,336000000,imu1_frame,-0.0012694376755675797,-0.06360898219548385,-0.041413317689165514,0.9971144483107336,0.052734375,0.017578125,-0.193359375,-0.20565998554229736,-0.1790937650948763,0.03809642791748047
1374,361000000,imu1_frame,0.00012372930661857474,-0.05913830798112446,-0.0441964809440842,0.9972709342462295,0.2109375,0.2109375,-0.244140625,-0.11756932735443115,-0.20584627240896225,0.02733898162841797
1374,386000000,imu1_frame,0.00429989561135644,-0.0587697303790708,-0.047150408809163755,0.9971481678456976,0.2109375,0.2109375,-0.244140625,0.3897097110748291,0.16671118140220642,-0.12940025329589844
1374,411000000,imu1_frame,0.004960527055343186,-0.05727983349044608,-0.04988620199988608,0.9970986815238834,0.2109375,0.2109375,-0.244140625,0.1149907112121582,-0.19160078465938568,-0.050628662109375
1374,436000000,imu1_frame,0.005926888111319045,-0.05629340329660313,-0.052640036488778116,0.9970079996173862,0.2109375,0.2109375,-0.244140625,0.17464077472686768,-0.21249336004257202,-0.0916757583618164
1374,461000000,imu1_frame,0.003922904728046083,-0.0567033213846715,-0.05293016966801322,0.9969793083616917,-0.009765625,0.08984375,-0.033203125,0.1646440029144287,-0.17417961359024048,-0.091156005859375
1374,486000000,imu1_frame,0.0011443285532360895,-0.05807846798344835,-0.05294002690474954,0.9969066835066271,-0.076171875,0.01953125,-0.005859375,0.13505315780639648,-0.12146276235580444,-0.08834648132324219
1374,511000000,imu1_frame,-0.0022015417271485107,-0.05843018078683098,-0.05292493249102761,0.9968851582344186,-0.076171875,0.01953125,-0.005859375,0.08569896221160889,-0.24801679700613022,-0.05232048034667969
1374,536000000,imu1_frame,-0.004567558803168011,-0.05767741020362574,-0.05425638886640444,0.99684938582815,-0.01171875,0.119140625,-0.1171875,0.09784162044525146,-0.20263752155005932,-0.05371570587158203
1374,561000000,imu1_frame,-0.006701655911186218,-0.05759649342515161,-0.05393033570478387,0.9968596945628527,0.0078125,0.087890625,0.015625,0.09718644618988037,-0.16059920191764832,-0.05342674255371094
1374,586000000,imu1_frame,-0.00872502221686245,-0.05772882532392733,-0.05361595784065673,0.9968533421616559,0.0078125,0.087890625,0.015625,0.09253561496734619,-0.12095821648836136,-0.05251884460449219
1374,611000000,imu1_frame,-0.00637402034069243,-0.05547486395652486,-0.053546774521823486,0.9970028356389016,0.0078125,0.087890625,0.015625,0.021576642990112305,-0.011969223618507385,-0.05819988250732422
1374,636000000,imu1_frame,-0.007160123197946657,-0.056948094569505794,-0.05316225460367805,0.9969350138530326,0.025390625,0.060546875,0.025390625,-0.007825613021850586,0.0022271648049354553,-0.054755210876464844
1374,661000000,imu1_frame,-0.004567979818031026,-0.05416827917731539,-0.0528544236609683,0.9971215276940005,0.046875,0.103515625,0.03125,0.04886579513549805,-0.04505511000752449,-0.0613861083984375
1374,686000000,imu1_frame,-0.0014934423521620916,-0.05239914187927579,-0.052570801331841235,0.9972403975008155,0.046875,0.103515625,0.03125,0.01219320297241211,0.014328612014651299,-0.061530113220214844
1374,711000000,imu1_frame,-0.003077005332660436,-0.05228648719730002,-0.052034749157948645,0.9972707958096529,0.046875,0.103515625,0.03125,0.012764334678649902,0.006800323259085417,-0.02255725860595703
1374,736000000,imu1_frame,-0.0017400426253093302,-0.05341225654227952,-0.0516564045744105,0.9972340342011842,0.046875,0.103515625,0.03125,-0.007769346237182617,-0.020013440400362015,-0.05941963195800781
1374,761000000,imu1_frame,-0.004190180277356257,-0.05293822709784117,-0.0519379959279746,0.997237399559386,0.0,0.013671875,-0.033203125,-0.0010311603546142578,0.027934830635786057,-0.060120582580566406
1374,786000000,imu1_frame,-0.002955668907138317,-0.0549480485068993,-0.052419470547043656,0.9971079054416139,0.0,0.013671875,-0.033203125,0.0002199411392211914,0.0013052282156422734,-0.05996131896972656
1374,811000000,imu1_frame,-0.004688992316099684,-0.056534578473949215,-0.052736424593628047,0.9969958496949288,0.0,0.013671875,-0.033203125,0.002772212028503418,-0.0059599243104457855,-0.056244850158691406
1374,836000000,imu1_frame,-0.007139263217362106,-0.05832389291351272,-0.05297794538380122,0.9968654331147396,-0.078125,0.01171875,-0.021484375,-0.03450942039489746,0.039653897285461426,-0.05166149139404297
1374,861000000,imu1_frame,-0.006029948285288708,-0.05698171923279599,-0.05466688457352895,0.9968591952367076,-0.0859375,-0.00390625,-0.12109375,-0.00740206241607666,0.017546072602272034,-0.05497169494628906
1374,886000000,imu1_frame,-0.008377990369414789,-0.05906072498101106,-0.056164014635870875,0.9966379701286063,-0.0859375,-0.00390625,-0.12109375,-0.011346578598022461,0.020250536501407623,-0.04959392547607422
1374,911000000,imu1_frame,-0.011207492729112666,-0.057383203891739315,-0.05761716542672319,0.9966252165513552,-0.0859375,-0.00390625,-0.12109375,-0.021141409873962402,0.0013637244701385498,-0.052329063415527344
1374,936000000,imu1_frame,-0.010682984878983727,-0.05378608662931994,-0.05778125325872075,0.9968220791550669,0.017578125,0.091796875,-0.013671875,0.04928326606750488,-0.004934325814247131,-0.060370445251464844
1374,961000000,imu1_frame,-0.01095974124390173,-0.055685050291368214,-0.058120567783427245,0.99669506813591,0.005859375,0.044921875,-0.02734375,0.012038111686706543,-0.002083525061607361,-0.05619049072265625
1374,988000000,imu1_frame,-0.008316846765477951,-0.054104678630080234,-0.05862417711174641,0.9967781697389776,0.005859375,0.044921875,-0.02734375,0.010501861572265625,-0.013234719634056091,-0.060577392578125
1375,11000000,imu1_frame,-0.01026296502609553,-0.05258216867030679,-0.0588204348048627,0.9968299471505495,0.005859375,0.044921875,-0.02734375,-0.001217961311340332,-0.012825354933738708,-0.05914020538330078
1375,36000000,imu1_frame,-0.012154253496238993,-0.05349083431323638,-0.059066159521001575,0.9967458018802301,0.005859375,0.044921875,-0.02734375,0.053151845932006836,-0.05542014539241791,-0.017364501953125
1375,61000000,imu1_frame,-0.014889003529199384,-0.05488848876652396,-0.06002838381951252,0.9965752176884853,-0.07421875,0.015625,-0.080078125,0.022666335105895996,-0.004833340644836426,-0.012957572937011719
1375,86000000,imu1_frame,-0.013250005732010193,-0.054591417260649894,-0.06121827564470587,0.9965422907416746,-0.07421875,0.015625,-0.080078125,-0.005054593086242676,0.040434300899505615,-0.057463645935058594
1375,111000000,imu1_frame,-0.014246714914101998,-0.05682985139123403,-0.06228531719675,0.9963372613561668,-0.07421875,0.015625,-0.080078125,0.024300694465637207,0.016865774989128113,-0.04814624786376953
1375,136000000,imu1_frame,-0.012872108200765512,-0.05548530358049441,-0.0634550457677445,0.9963579412458463,-0.07421875,0.015625,-0.080078125,0.01277768611907959,-0.009531378746032715,-0.05182647705078125
1375,161000000,imu1_frame,-0.014756826985326597,-0.05750939300171765,-0.06359797394390174,0.9962079117755138,-0.04296875,0.001953125,-0.013671875,-0.028850674629211426,0.024460241198539734,-0.04633903503417969
1375,186000000,imu1_frame,-0.013807326811923417,-0.05545578998835226,-0.06386331925659539,0.9963209771637886,-0.04296875,0.001953125,-0.013671875,-0.06209671497344971,0.04732957482337952,-0.051403045654296875
1375,211000000,imu1_frame,-0.013861141319496655,-0.052962151591560674,-0.0640650821589389,0.9964429459372384,-0.04296875,0.001953125,-0.013671875,-0.013780593872070312,0.01225222647190094,-0.06056499481201172
1375,236000000,imu1_frame,-0.012270334308751074,-0.05169634674672162,-0.0643700159467218,0.9965106259724545,-0.046875,0.0,-0.013671875,0.012725234031677246,-0.01743978261947632,-0.06396675109863281
1375,261000000,imu1_frame,-0.015379356553179842,-0.053713195426646716,-0.06473787125236595,0.9963369791665776,-0.1015625,-0.033203125,-0.03125,-0.03039836883544922,0.04014405608177185,-0.05813121795654297
1375,286000000,imu1_frame,-0.015796314337822293,-0.0563850085312236,-0.06526293743035523,0.9961485613422507,-0.1015625,-0.033203125,-0.03125,0.030365943908691406,0.044246599078178406,-0.04822063446044922
1375,311000000,imu1_frame,-0.013560566083973267,-0.05760835952201717,-0.06495878231575235,0.9961313892056203,0.033203125,0.041015625,0.033203125,0.009496331214904785,-0.000510096549987793,-0.04677867889404297
1375,336000000,imu1_frame,-0.014413514296971339,-0.05497985321656765,-0.06443247752052725,0.9963021239495893,0.033203125,0.041015625,0.033203125,-0.014661550521850586,-0.019012734293937683,-0.05209636688232422
1375,361000000,imu1_frame,-0.016431283106019625,-0.0533536029725813,-0.06385420552180453,0.9963965307158155,0.015625,0.0390625,0.03515625,0.014555931091308594,0.02296462655067444,-0.05432319641113281
1375,386000000,imu1_frame,-0.01379906732483867,-0.05231587693765158,-0.06353851639268049,0.9965116615955009,0.015625,0.0390625,0.03515625,-0.0010422468185424805,0.01240934431552887,-0.061928749084472656
1375,411000000,imu1_frame,-0.011436471737998263,-0.05308635196913376,-0.06322485633123799,0.9965207794575534,0.015625,0.0390625,0.03515625,-0.013054251670837402,-0.034241169691085815,-0.06150627136230469
1375,436000000,imu1_frame,-0.013702390151896103,-0.052233559558913324,-0.06264620469601813,0.9965738069993187,0.015625,0.0390625,0.03515625,0.0008575916290283203,-0.02750656008720398,-0.0621490478515625
1375,461000000,imu1_frame,-0.016907026468046073,-0.05260293393699225,-0.06248794727246954,0.9965150978499534,-0.060546875,0.00390625,0.005859375,-0.010148882865905762,0.03461116552352905,-0.059474945068359375
1375,486000000,imu1_frame,-0.016057699123737376,-0.05441271377902455,-0.06256746620357458,0.9964269762761937,-0.060546875,0.00390625,0.005859375,-0.0052329301834106445,0.015744313597679138,-0.052329063415527344
1375,511000000,imu1_frame,-0.016208090375314052,-0.051907097693243025,-0.06253932164162755,0.9965599752468763,-0.060546875,0.00390625,0.005859375,-0.03486752510070801,0.02180922031402588,-0.06134796142578125
1375,536000000,imu1_frame,-0.016279394660817972,-0.05064804378133752,-0.06196015221699247,0.9966597696846442,-0.125,-0.0625,0.056640625,-0.010342717170715332,0.025342434644699097,-0.0638265609741211
1375,561000000,imu1_frame,-0.01545485151904677,-0.05113697566210914,-0.061641151844899815,0.9966677107661767,-0.126953125,-0.06640625,0.041015625,-0.018780231475830078,0.00900772213935852,-0.06336498260498047
1375,586000000,imu1_frame,-0.018952906225015748,-0.05352984870961397,-0.061122786896061466,0.9965135962769449,-0.126953125,-0.06640625,0.041015625,0.008867502212524414,0.000539630651473999,-0.09517955780029297
1375,611000000,imu1_frame,-0.01979396262716799,-0.05549415907451,-0.060360986040178206,0.9964362241088913,-0.029296875,0.03515625,0.064453125,-0.03002142906188965,0.01537206768989563,-0.09035682678222656
1375,636000000,imu1_frame,-0.01787861855266305,-0.05405677400089238,-0.05970137505454161,0.996591172948999,-0.029296875,0.03515625,0.064453125,0.0002988576889038086,0.01567015051841736,-0.055782318115234375
1375,661000000,imu1_frame,-0.015677377591111527,-0.05467080023440437,-0.05833823754129318,0.9966754604554939,0.00390625,0.04296875,0.12109375,-0.00876462459564209,-0.026445597410202026,-0.05592155456542969
1375,686000000,imu1_frame,-0.016290319895690138,-0.05170345700169256,-0.05677064772092282,0.9969144755540051,0.00390625,0.04296875,0.12109375,-0.029522299766540527,-0.00945955514907837,-0.018739700317382812
1375,711000000,imu1_frame,-0.01700718221924721,-0.04876450110372311,-0.05519765269500403,0.9971389062322399,0.00390625,0.04296875,0.12109375,0.027262389659881592,0.009345203638076782,-0.024044036865234375
1375,736000000,imu1_frame,-0.019105483806695082,-0.04953947789798977,-0.05360973641821164,0.9971493452734533,0.00390625,0.04296875,0.12109375,0.049540817737579346,-0.062332868576049805,-0.10310554504394531
1375,761000000,imu1_frame,-0.02081562547524799,-0.05087375224454304,-0.0532639508853394,0.9970664584694038,0.017578125,0.01953125,0.021484375,0.0219651460647583,-0.03008788824081421,-0.099151611328125
1375,786000000,imu1_frame,-0.018120395644069545,-0.05031894180755216,-0.053112870274475435,0.9971552930051955,0.017578125,0.01953125,0.021484375,-0.0035137534141540527,0.03142213821411133,-0.020270347595214844
1375,811000000,imu1_frame,-0.020171762646235047,-0.05111149663568006,-0.05273783798004852,0.9970954996130486,0.017578125,0.01953125,0.021484375,-0.020882368087768555,0.0357779860496521,-0.06013202667236328
1375,836000000,imu1_frame,-0.01744169418369116,-0.05012256047079354,-0.052754429218825845,0.9971963128861088,0.03125,0.01171875,0.005859375,0.0011001825332641602,-0.016393840312957764,-0.06409549713134766
1375,861000000,imu1_frame,-0.01907205012120482,-0.05040263424137185,-0.05230493476764104,0.9971760251653954,0.056640625,0.046875,0.025390625,-0.005850672721862793,0.015531420707702637,-0.062381744384765625
1375,886000000,imu1_frame,-0.016489075160188764,-0.05150865727788288,-0.05208676380829365,0.9971769841215603,0.056640625,0.046875,0.025390625,0.014362931251525879,-0.0005701780319213867,-0.058068275451660156
1375,911000000,imu1_frame,-0.01657649645923961,-0.05384615683915987,-0.05120831798196436,0.9970975475490085,0.02734375,0.009765625,0.0703125,-0.03091907501220703,-0.00034749507904052734,-0.05319786071777344
1375,936000000,imu1_frame,-0.01619692683607925,-0.05124494006101229,-0.050285211722762145,0.997287828643871,0.02734375,0.009765625,0.0703125,-0.05786693096160889,-0.004155963659286499,-0.05878448486328125
1375,961000000,imu1_frame,-0.016439280725339303,-0.048773456308387864,-0.04951467871264268,0.9974463377049168,-0.00390625,-0.001953125,0.05859375,-0.00982898473739624,0.003783315420150757,-0.0634613037109375
1375,986000000,imu1_frame,-0.015192690365917484,-0.046689117752288276,-0.04882245167654019,0.9975999582273698,-0.00390625,-0.001953125,0.05859375,0.03208160400390625,-0.017826974391937256,-0.06812191009521484
1376,11000000,imu1_frame,-0.016513325768273995,-0.048859565854300735,-0.04806292066806502,0.9975119089782616,-0.00390625,-0.001953125,0.05859375,-0.01117098331451416,0.006550580263137817,-0.06324958801269531
1376,36000000,imu1_frame,-0.014775959347290004,-0.04717624115342399,-0.047400532094137686,0.9976518745801031,-0.00390625,-0.001953125,0.05859375,0.023343265056610107,-0.025092050433158875,-0.06747245788574219
1376,61000000,imu1_frame,-0.017730032162863795,-0.05020394321056417,-0.04344207713462323,0.9976362042246881,-0.076171875,-0.109375,0.314453125,-0.03704780340194702,0.033589184284210205,-0.05983257293701172
1376,86000000,imu1_frame,-0.0191104764243981,-0.053932431001909274,-0.03957426497901392,0.9975770447080403,-0.076171875,-0.109375,0.314453125,0.042922139167785645,0.02624213695526123,-0.05124855041503906
1376,111000000,imu1_frame,-0.019669622320669728,-0.05279031105975383,-0.03567224882493422,0.9977744132216202,-0.076171875,-0.109375,0.314453125,-0.08628976345062256,0.04213231801986694,-0.0922689437866211
1376,136000000,imu1_frame,-0.01930290354622774,-0.05172821391262066,-0.03261345035345576,0.9979418583545525,-0.05078125,-0.095703125,0.248046875,-0.06433451175689697,0.03887665271759033,-0.09471893310546875
1376,161000000,imu1_frame,-0.01810720993480731,-0.05140013925104305,-0.029609037598342724,0.9980748767130901,-0.05078125,-0.095703125,0.248046875,-0.05624222755432129,0.05398324131965637,-0.10016059875488281
1376,186000000,imu1_frame,-0.019532840131235022,-0.05492870372993087,-0.026534828576394175,0.9979464958279971,-0.05078125,-0.095703125,0.248046875,0.027750015258789062,0.008786529302597046,-0.052715301513671875
1376,211000000,imu1_frame,-0.01918368334870882,-0.056646442684133,-0.025499578438427775,0.9978842309225415,-0.00390625,0.056640625,0.08984375,-0.005119681358337402,0.002207547426223755,-0.049233436584472656
1376,236000000,imu1_frame,-0.018441182389851984,-0.053583712385120046,-0.02440123022554482,0.9980948294238243,-0.00390625,0.056640625,0.08984375,-0.17139899730682373,0.06469717621803284,-0.013409614562988281
1376,261000000,imu1_frame,-0.016672033845377302,-0.05033150306054855,-0.02313955449907,0.9983252696915514,0.0703125,0.076171875,0.099609375,-0.10692024230957031,0.033048778772354126,-0.02122974395751953
1376,286000000,imu1_frame,-0.015937925370460574,-0.04689590506609031,-0.021823898345313248,0.9985341627024742,0.0703125,0.076171875,0.099609375,-0.004169464111328125,-0.013608187437057495,-0.07119560241699219
1376,311000000,imu1_frame,-0.017071136360555277,-0.04746510683888569,-0.02048417658580447,0.9985169194589214,0.0703125,0.076171875,0.099609375,0.02376502752304077,-0.02955847978591919,-0.10847759246826172
1376,336000000,imu1_frame,-0.01812313380965038,-0.047904497403451124,-0.018535933670553204,0.9985154632314919,0.0625,0.103515625,0.150390625,0.015459418296813965,-0.007377594709396362,-0.1069345474243164
1376,361000000,imu1_frame,-0.01927399448541717,-0.05027729572292683,-0.01642804564667261,0.9984141555424765,-0.001953125,-0.01171875,0.16796875,-0.03037625551223755,0.016258686780929565,-0.10153961181640625
1376,386000000,imu1_frame,-0.017406632502758604,-0.04889808796300002,-0.014403510608449029,0.9985482086612687,-0.001953125,-0.01171875,0.16796875,-0.07652056217193604,0.09552076458930969,-0.06649017333984375
1376,411000000,imu1_frame,-0.01664673085711461,-0.046684806949806854,-0.012309900682753833,0.9986950893526068,-0.001953125,-0.01171875,0.16796875,-0.1106838583946228,0.04420739412307739,-0.07113075256347656
1376,436000000,imu1_frame,-0.01567695411332271,-0.044246390203725665,-0.012515483029027542,0.9988192292643442,0.0,0.01171875,-0.015625,-0.0630190372467041,0.02572271227836609,-0.07607746124267578
1376,461000000,imu1_frame,-0.014581761996753038,-0.041748233713646575,-0.012743340499795832,0.9989404709349636,0.0078125,0.017578125,-0.017578125,-0.01414036750793457,0.0047997236251831055,-0.08092498779296875
1376,486000000,imu1_frame,-0.01363421339307558,-0.03919142554309283,-0.012964207793350571,0.9990545879507,0.0078125,0.017578125,-0.017578125,0.03587466478347778,-0.013204425573348999,-0.08549308776855469
1376,511000000,imu1_frame,-0.013939034773693812,-0.0408804183095913,-0.013704045957482841,0.9989728193663758,0.04296875,0.052734375,-0.060546875,0.0026793479919433594,-0.008293777704238892,-0.08268451690673828
1376,536000000,imu1_frame,-0.015239400261242491,-0.041880264673239354,-0.014391995694790676,0.9989027352903276,0.04296875,0.052734375,-0.060546875,-0.01734071969985962,0.016246646642684937,-0.08032608032226562
1376,561000000,imu1_frame,-0.012581076883628379,-0.039982996754648024,-0.015216593422309665,0.9990052711370377,0.048828125,0.03515625,-0.0625,0.020168066024780273,-0.03574393689632416,-0.0848073959350586
1376,586000000,imu1_frame,-0.01043170876003097,-0.03757425648817959,-0.016014796596167762,0.9991110453756828,0.048828125,0.03515625,-0.0625,-0.698020875453949,0.49665431678295135,-0.16364479064941406
1376,611000000,imu1_frame,-0.009906613917351299,-0.03466169197133671,-0.0167479942701298,0.9992096530750214,0.048828125,0.03515625,-0.0625,0.046316444873809814,-0.00926034152507782,-0.05468463897705078
1376,636000000,imu1_frame,-0.011636714609764065,-0.035019870886556635,-0.017436252776512944,0.9991667391408171,0.048828125,0.03515625,-0.0625,0.003471970558166504,-0.015129491686820984,-0.08862495422363281
1376,661000000,imu1_frame,-0.012973282063759202,-0.035597205028369,-0.01991418724325693,0.9990835591146033,0.060546875,0.052734375,-0.205078125,-0.008829712867736816,0.009032666683197021,-0.08718490600585938
1376,686000000,imu1_frame,-0.011920618239011622,-0.03747448253343616,-0.022493783067329,0.9989732687829895,0.060546875,0.052734375,-0.205078125,0.02861696481704712,-0.014171183109283447,-0.08501529693603516
1376,711000000,imu1_frame,-0.01332152918753488,-0.03581065011315097,-0.024936757840682354,0.9989586039005692,0.060546875,0.052734375,-0.205078125,0.02080172300338745,0.012202456593513489,-0.051550865173339844
1376,736000000,imu1_frame,-0.012257644196531518,-0.038266897650132414,-0.025214128016702135,0.9988741874987774,0.0078125,-0.01171875,-0.017578125,-0.026645183563232422,-0.009996965527534485,-0.048526763916015625
1376,761000000,imu1_frame,-0.013104766424460875,-0.035883037491966745,-0.02548490778029776,0.9989450396256742,0.013671875,0.009765625,-0.02734375,0.019362330436706543,0.007546737790107727,-0.05156135559082031
1376,786000000,imu1_frame,-0.010720924117713505,-0.03695927358158108,-0.02591584405313671,0.998923141642738,0.013671875,0.009765625,-0.02734375,-0.0005391836166381836,-0.0007912218570709229,-0.05113983154296875
1376,811000000,imu1_frame,-0.011685399295537363,-0.03878246493289021,-0.026249562061386858,0.9988344869639907,0.021484375,0.02734375,-0.029296875,-0.03663593530654907,0.01684419810771942,-0.048018455505371094
1376,836000000,imu1_frame,-0.01050261100956704,-0.03657244868806433,-0.02673289836528501,0.9989181664700727,0.001953125,0.0,-0.037109375,0.006959497928619385,-0.005442947149276733,-0.05178642272949219
1376,861000000,imu1_frame,-0.011672763364091867,-0.03871048693932396,-0.02723444847525263,0.9988110580147854,0.01171875,-0.001953125,-0.04296875,-0.035431087017059326,0.015883833169937134,-0.048132896423339844
1376,886000000,imu1_frame,-0.013099864117699473,-0.03682444764769171,-0.027682319944017646,0.9988523628535186,0.01171875,-0.001953125,-0.04296875,0.00048619508743286133,0.00537659227848053,-0.08928871154785156
1376,911000000,imu1_frame,-0.011966076512374187,-0.03915848897368297,-0.028276730148361594,0.9987611587793725,0.01171875,-0.001953125,-0.04296875,-0.04453974962234497,-0.018499955534934998,-0.08637809753417969
1376,936000000,imu1_frame,-0.011112801756699939,-0.03679983814965626,-0.028808290574697203,0.9988455135522406,0.01171875,-0.001953125,-0.04296875,-0.03335416316986084,0.004844143986701965,-0.08635902404785156
1376,961000000,imu1_frame,-0.010502907786475248,-0.03400290968137109,-0.02945082377577267,0.9989325002422125,0.017578125,0.02734375,-0.052734375,0.021408498287200928,-0.005897998809814453,-0.09048748016357422
1376,989000000,imu1_frame,-0.00818046894789175,-0.03555491292378593,-0.03027203763375583,0.9988756338164801,0.017578125,0.02734375,-0.052734375,-0.007650017738342285,-0.013657689094543457,-0.09313106536865234
1377,11000000,imu1_frame,-0.008659828023622841,-0.033182560334269834,-0.03080709091658314,0.9989368589743404,0.017578125,0.02734375,-0.052734375,-0.0008067488670349121,-0.003230839967727661,-0.092254638671875
1377,36000000,imu1_frame,-0.010375573962432312,-0.03509528907386536,-0.031618790627308546,0.9988297754017141,-0.00390625,-0.005859375,-0.068359375,-0.03927868604660034,0.028540819883346558,-0.08906364440917969
1377,61000000,imu1_frame,-0.008564776325184266,-0.033249030053549296,-0.032361249991330866,0.9988863279202476,0.01171875,-0.001953125,-0.056640625,-0.0022749900817871094,-0.006145372986793518,-0.09220123291015625
1377,86000000,imu1_frame,-0.010652553408807301,-0.0343586739086587,-0.0329955962597267,0.9988079371233372,0.01171875,-0.001953125,-0.056640625,-0.025340259075164795,0.03347475826740265,-0.0899496078491211
1377,111000000,imu1_frame,-0.008024543827037647,-0.03284998048876707,-0.03368282417774868,0.998860326989548,0.033203125,0.025390625,-0.05078125,0.00566786527633667,-0.01729394495487213,-0.09289169311523438
1377,136000000,imu1_frame,-0.00955991872645504,-0.03375056314114069,-0.0342136620753295,0.9987987448775628,0.046875,0.03125,-0.048828125,-0.01298445463180542,0.011729210615158081,-0.09119129180908203
1377,161000000,imu1_frame,-0.006730046825470937,-0.03206035077954108,-0.03518338076989054,0.9988438166676613,0.052734375,0.033203125,-0.07421875,0.021750688552856445,-0.0429915115237236,-0.09426689147949219
1377,186000000,imu1_frame,-0.0074725483610902504,-0.033712315764002465,-0.03605623042874252,0.9987530170337854,0.052734375,0.033203125,-0.07421875,0.027981996536254883,-0.030219249427318573,-0.09584331512451172
1377,211000000,imu1_frame,-0.009082931024986517,-0.03494425350772057,-0.037301755921126056,0.9986515801399327,0.005859375,0.044921875,-0.103515625,0.0026442408561706543,-0.0005171447992324829,-0.09366893768310547
1377,236000000,imu1_frame,-0.007477900738180478,-0.0323792035724734,-0.0386325169854306,0.9987007543843816,0.005859375,0.044921875,-0.103515625,-0.06352794170379639,0.04340556263923645,-0.0975637435913086
1377,261000000,imu1_frame,-0.005560074567011805,-0.030090658668290658,-0.04093304498170145,0.9986932079774267,0.021484375,0.029296875,-0.181640625,-0.017648696899414062,0.006340421736240387,-0.10084724426269531
1377,286000000,imu1_frame,-0.006581227696605124,-0.03183413352105816,-0.043161447320978624,0.9985391153330586,0.021484375,0.029296875,-0.181640625,0.1387152075767517,-0.0898079052567482,-0.0945882797241211
1377,311000000,imu1_frame,-0.007295513338456665,-0.03374699597424976,-0.045399287295298095,0.9983720851771255,0.021484375,0.029296875,-0.181640625,-0.012713968753814697,-0.0008549466729164124,-0.05287933349609375
1377,336000000,imu1_frame,-0.007375662399948425,-0.031108846598238846,-0.045418584263189815,0.9984563042372043,0.015625,0.013671875,-0.00390625,0.03864419460296631,0.003050975501537323,-0.05620098114013672
1377,361000000,imu1_frame,-0.007136887685960342,-0.03329849897987268,-0.04545488988086681,0.998385761009122,0.015625,0.025390625,-0.001953125,-0.0038371682167053223,-0.0035868436098098755,-0.0535125732421875
1377,386000000,imu1_frame,-0.006968432637587054,-0.03049741257961208,-0.045459436948319734,0.9984762332498787,0.015625,0.025390625,-0.001953125,-0.027203381061553955,-0.004375733435153961,-0.10001945495605469
1377,411000000,imu1_frame,-0.004656120720446954,-0.028839855976043178,-0.04553710008405983,0.9985354053628004,0.015625,0.025390625,-0.001953125,0.0071623921394348145,-0.012915290892124176,-0.10246849060058594
1377,436000000,imu1_frame,-0.006304583954681665,-0.03025222454849623,-0.04538531523321723,0.9984914763242634,0.017578125,0.01953125,0.0078125,-0.021826982498168945,0.018087349832057953,-0.10048389434814453
1377,461000000,imu1_frame,-0.004264885689612369,-0.028582359091025786,-0.04540810821953213,0.9985504309782102,0.009765625,0.005859375,0.001953125,0.012538731098175049,-0.020249083638191223,-0.10282516479492188
1377,486000000,imu1_frame,-0.005718242380820603,-0.02657915275705062,-0.0453292974230775,0.9986020754724685,0.009765625,0.005859375,0.001953125,0.01126861572265625,0.00994350016117096,-0.061733245849609375
1377,511000000,imu1_frame,-0.004456398329253762,-0.028740497077228356,-0.04547018153810763,0.9985422309209444,0.0,0.0,-0.0078125,-0.02978038787841797,-0.016687016934156418,-0.0596466064453125
1377,536000000,imu1_frame,-0.005716115617646497,-0.026586910269884835,-0.04552426914730829,0.9985930117636264,0.0,0.0,-0.0078125,0.011101961135864258,0.009792767465114594,-0.061725616455078125
1377,561000000,imu1_frame,-0.004645111500045442,-0.028522382771710264,-0.045647120717271505,0.9985395520410791,-0.015625,0.017578125,-0.005859375,-0.025705337524414062,-0.012908637523651123,-0.05985736846923828
1377,586000000,imu1_frame,-0.005949744810167773,-0.026780739916327782,-0.04553315684473326,0.9985860624573031,-0.0078125,-0.037109375,0.005859375,0.007113277912139893,0.014175169169902802,-0.06147003173828125
1377,611000000,imu1_frame,-0.005522130038029852,-0.02967518912273832,-0.04548601995275521,0.9985088438362628,-0.0078125,-0.037109375,0.005859375,-0.009891271591186523,0.003271043300628662,-0.062277793884277344
1377,636000000,imu1_frame,-0.004486904253554965,-0.02775675672047699,-0.04555933024183086,0.9985658604090646,-0.005859375,-0.025390625,-0.00390625,0.028434932231903076,-0.01526343822479248,-0.06463432312011719
1377,661000000,imu1_frame,-0.005807194006198139,-0.029967773626821233,-0.04565783823597838,0.998490646350402,-0.009765625,-0.001953125,-0.009765625,-0.015864312648773193,0.008472077548503876,-0.0618743896484375
1377,686000000,imu1_frame,-0.005431795242245964,-0.02754178205738021,-0.04578722685703259,0.9985566962863416,-0.009765625,-0.001953125,-0.009765625,-0.00729215145111084,0.003247790038585663,-0.0998392105102539
1377,711000000,imu1_frame,-0.0034659498416298863,-0.02618806385834239,-0.04596443227199901,0.998593732940959,-0.009765625,-0.001953125,-0.009765625,0.020859479904174805,-0.03400007262825966,-0.10160255432128906
1377,736000000,imu1_frame,-0.00542275288264214,-0.027464864974212713,-0.04583811462928057,0.9985565292913342,0.0078125,0.01171875,0.005859375,-0.005787253379821777,0.00311269611120224,-0.09992504119873047
1377,761000000,imu1_frame,-0.0026460141208623296,-0.026524428090273604,-0.046074420248664295,0.9985822956183961,0.01953125,0.0625,-0.013671875,0.015030860900878906,-0.050364792346954346,-0.10135555267333984
1377,786000000,imu1_frame,-0.004750715703089603,-0.026498933310700187,-0.046177998710488194,0.9985703929462347,0.01953125,0.0625,-0.013671875,0.01362985372543335,-0.009314015507698059,-0.06201457977294922
1377,811000000,imu1_frame,-0.006115245015142393,-0.028529350644833605,-0.046247830999027836,0.9985037897064158,-0.001953125,0.005859375,-0.0078125,-0.02720487117767334,0.015440806746482849,-0.059539794921875
1377,836000000,imu1_frame,-0.004643086791927803,-0.026451308937153105,-0.04637965904824589,0.9985628158644413,-0.001953125,0.005859375,-0.0078125,0.014641642570495605,-0.011476747691631317,-0.10114574432373047
1377,861000000,imu1_frame,-0.006006703615568225,-0.02842560247318896,-0.0464467239283813,0.9984981754975978,0.001953125,0.0078125,-0.0078125,-0.02510201930999756,0.013304919004440308,-0.09874439239501953
1377,886000000,imu1_frame,-0.004460146775586824,-0.026268592354720306,-0.04664689254864423,0.9985560252494582,0.0078125,0.009765625,-0.013671875,0.018354058265686035,-0.015019714832305908,-0.10136699676513672
1377,911000000,imu1_frame,-0.0058971438886127985,-0.028116459190757094,-0.0467808530040182,0.9984919830468083,0.0078125,0.009765625,-0.013671875,-0.01900392770767212,0.011262893676757812,-0.06004905700683594
1377,936000000,imu1_frame,-0.004486952392500594,-0.02622195664806669,-0.04693850574538122,0.9985434657170239,-0.0078125,-0.0078125,-0.009765625,0.019220948219299316,-0.014604561030864716,-0.062347412109375
1377,961000000,imu1_frame,-0.0060008130568614,-0.02840317464786898,-0.047003058488653625,0.9984728150557186,-0.001953125,-0.013671875,-0.0078125,-0.024710237979888916,0.012898482382297516,-0.059708595275878906
1377,986000000,imu1_frame,-0.004677485226563153,-0.02647596200036856,-0.0471291272036758,0.9985269099714488,-0.001953125,-0.013671875,-0.0078125,0.01407933235168457,-0.011218823492527008,-0.062050819396972656
1378,11000000,imu1_frame,-0.006110901101630144,-0.028711276567182396,-0.04719593985995665,0.998454236681053,-0.001953125,-0.013671875,-0.0078125,-0.030837178230285645,0.014653541147708893,-0.09840011596679688
1378,36000000,imu1_frame,-0.004688679343381467,-0.026072156189395252,-0.04727233580134632,0.9985307132109335,0.0078125,0.041015625,-0.00390625,0.021935582160949707,-0.01070096343755722,-0.10152721405029297
1378,61000000,imu1_frame,-0.005675377009729253,-0.02813510721342942,-0.04734834352361669,0.998465993513778,0.005859375,0.015625,-0.0078125,-0.01921379566192627,0.006602488458156586,-0.09914112091064453
1378,86000000,imu1_frame,-0.0052021775339270255,-0.025476191986708793,-0.047445046991930515,0.9985353616706297,0.005859375,0.015625,-0.0078125,-0.005989015102386475,-0.00021310895681381226,-0.10202789306640625
1378,111000000,imu1_frame,-0.007329671784590924,-0.02428077459414414,-0.047512935833924616,0.9985485670837847,-0.013671875,-0.03125,-0.009765625,0.01535499095916748,0.042390719056129456,-0.10266876220703125
1378,136000000,imu1_frame,-0.006146689778251884,-0.026757256036256116,-0.047682537524711986,0.9984851741860691,-0.013671875,-0.03125,-0.009765625,0.007191359996795654,0.016903959214687347,-0.061448097229003906
1378,161000000,imu1_frame,-0.004016792799894652,-0.02784763849599482,-0.0478910252059162,0.9984562204275785,0.005859375,0.029296875,-0.01171875,-0.012105762958526611,-0.02579844370484352,-0.06070709228515625
1378,186000000,imu1_frame,-0.0067050527975881,-0.02695270217257083,-0.04824755171457477,0.9984491814139204,-0.029296875,-0.001953125,-0.033203125,0.0028010010719299316,0.027317315340042114,-0.061102867126464844
1378,211000000,imu1_frame,-0.008974255725591383,-0.028565575201973198,-0.048627915048594386,0.9983680666595756,-0.029296875,-0.001953125,-0.033203125,-0.030838429927825928,0.034700945019721985,-0.09771919250488281
1378,236000000,imu1_frame,-0.0068776089698902336,-0.02735687008211629,-0.04925952338937643,0.9983875998376678,0.001953125,-0.015625,-0.046875,-0.005353212356567383,-0.005401745438575745,-0.09969043731689453
1378,261000000,imu1_frame,-0.009376309306401726,-0.02741502435193446,-0.04945709650200168,0.9983558968970762,0.0,-0.009765625,-0.021484375,-0.008913040161132812,0.04319426417350769,-0.09883403778076172
1378,286000000,imu1_frame,-0.006875388796957727,-0.027484206741305566,-0.04979310906545909,0.9983576481894086,0.0,-0.009765625,-0.021484375,-0.007891416549682617,0.029297851026058197,-0.06049156188964844
1378,311000000,imu1_frame,-0.005366908610729783,-0.02561756169998493,-0.05009123001174585,0.9984016253494492,0.0,-0.009765625,-0.021484375,-0.009111642837524414,0.0015319734811782837,-0.1018533706665039
1378,336000000,imu1_frame,-0.004933351316124925,-0.0232564436688057,-0.05061122882076346,0.9984354277518018,-0.01171875,-0.005859375,-0.041015625,0.03732672333717346,-0.004850566387176514,-0.10419559478759766
1378,361000000,imu1_frame,-0.005356390373636305,-0.02527798430641795,-0.051050519423660325,0.9983617465919578,0.0,0.03515625,-0.03515625,-0.0025543272495269775,0.0011809319257736206,-0.10219287872314453
1378,386000000,imu1_frame,-0.007825217394922247,-0.0249032052685978,-0.05142780142798943,0.998335503515905,0.0,0.03515625,-0.03515625,0.0022507905960083008,0.014390513300895691,-0.10192394256591797
1378,411000000,imu1_frame,-0.00575255457203758,-0.026046788421667764,-0.05158996816684321,0.9983120494681794,-0.00390625,0.015625,-0.0078125,-0.017988502979278564,-0.027291521430015564,-0.10133552551269531
1378,436000000,imu1_frame,-0.008012366987915003,-0.02470984620294554,-0.05162613793147697,0.9983285868681503,-0.00390625,0.015625,-0.0078125,0.005808144807815552,0.01814018189907074,-0.10205459594726562
1378,461000000,imu1_frame,-0.00579756081054144,-0.026362975609607715,-0.051851058251409086,0.998289962668094,0.015625,-0.013671875,-0.013671875,-0.024222195148468018,-0.026869185268878937,-0.10100173950195312
1378,486000000,imu1_frame,-0.007977754817409083,-0.025741236680934265,-0.05194868502295234,0.9982860703659023,0.015625,-0.013671875,-0.013671875,-0.01431286334991455,-0.022807493805885315,-0.10104751586914062
1378,511000000,imu1_frame,-0.005582654570678978,-0.024740915058960658,-0.05216250416587221,0.9983164800047803,0.015625,-0.013671875,-0.013671875,0.007600903511047363,-0.029566437005996704,-0.10266971588134766
1378,536000000,imu1_frame,-0.007935923029999506,-0.025557560129813608,-0.05210720357394384,0.9982828615084887,0.0,0.001953125,0.0,-0.010709047317504883,0.015545472502708435,-0.10124492645263672
1378,561000000,imu1_frame,-0.005437969838245214,-0.02479161187483867,-0.05218481761035637,0.9983148547806245,0.009765625,0.0,-0.001953125,0.006757527589797974,-0.0324525311589241,-0.10265159606933594
1378,586000000,imu1_frame,-0.007290224726319921,-0.023260354129723246,-0.052150185133179504,0.9983417084043794,0.009765625,0.0,-0.001953125,-0.0004140138626098633,0.0052743107080459595,-0.10362911224365234
1378,611000000,imu1_frame,-0.005503864040383437,-0.02513351137899404,-0.05222216631305105,0.9983039914935525,0.009765625,0.0,-0.001953125,2.0176172256469727e-05,0.003621228039264679,-0.10230350494384766
1378,636000000,imu1_frame,-0.004350608538694129,-0.027475008515337098,-0.05235292690948403,0.9982411367783015,0.0078125,-0.005859375,-0.0078125,-0.0444718599319458,-0.02134915068745613,-0.10011863708496094
1378,661000000,imu1_frame,-0.005325843621053082,-0.025049326446145624,-0.05248357845003421,0.9982933640104985,0.009765625,0.015625,-0.013671875,0.0018221139907836914,0.00010427087545394897,-0.10242462158203125
1378,686000000,imu1_frame,-0.0055731539310010245,-0.02732979794310629,-0.052652183352048305,0.9982233065241026,0.009765625,0.015625,-0.013671875,-0.042912423610687256,0.002492859959602356,-0.10003662109375
1378,711000000,imu1_frame,-0.005227214223653575,-0.02472924695269364,-0.052646439749376085,0.9982932900497369,0.0078125,0.009765625,0.0,0.008152633905410767,-0.0015707165002822876,-0.10275554656982422
1378,736000000,imu1_frame,-0.0055563959539491285,-0.026784550462793023,-0.0526382570809249,0.9982389133929771,0.017578125,0.03125,0.0,-0.03226280212402344,0.002736039459705353,-0.1006174087524414
1378,761000000,imu1_frame,-0.0051389528214795645,-0.024090195537174612,-0.05265909664097036,0.9983087063548212,0.0078125,0.017578125,-0.001953125,0.020705312490463257,-0.0026398226618766785,-0.10338401794433594
1378,786000000,imu1_frame,-0.005489984848002714,-0.026331195910861454,-0.05268038365097555,0.9982491198927542,0.0078125,0.017578125,-0.001953125,-0.02335798740386963,0.0018860474228858948,-0.10110187530517578
1378,811000000,imu1_frame,-0.007527494521642948,-0.024836221152310885,-0.052640873454894536,0.9982762330071803,0.0078125,0.017578125,-0.001953125,0.0037072300910949707,0.008050315082073212,-0.10207843780517578
1378,836000000,imu1_frame,-0.00606064695920657,-0.02687410021720674,-0.052688185066831573,0.9982309384357485,0.00390625,0.001953125,0.0,-0.034530818462371826,-0.022700190544128418,-0.10040855407714844
1378,861000000,imu1_frame,-0.007581938021438994,-0.024902856558861,-0.05271281172899935,0.99827036489654,-0.00390625,-0.00390625,-0.005859375,0.0023430585861206055,0.009008266031742096,-0.10199832916259766
1378,886000000,imu1_frame,-0.00592721184354252,-0.02678095250181018,-0.05284114430754114,0.9982261578475728,-0.00390625,-0.00390625,-0.005859375,-0.032591044902801514,-0.02528855949640274,-0.10053730010986328
1378,911000000,imu1_frame,-0.005491194862978901,-0.02437926984277565,-0.05291723551299807,0.9982861634654524,-0.00390625,-0.00390625,-0.005859375,-0.0204714834690094,0.003810875117778778,-0.10303688049316406
1378,936000000,imu1_frame,-0.004870985162853569,-0.022030233824626603,-0.05296941582216552,0.9983412158619087,0.001953125,-0.005859375,-0.00390625,0.025979697704315186,-0.005879119038581848,-0.10529327392578125
1378,961000000,imu1_frame,-0.005526448769766546,-0.024414531853189664,-0.053036733084241804,0.9982787656472193,0.0,0.001953125,-0.005859375,-0.02120479941368103,0.004404403269290924,-0.1029958724975586
1378,990000000,imu1_frame,-0.005144018599693622,-0.02725941468525935,-0.05314296027915253,0.9982015273262366,0.0,0.001953125,-0.005859375,-0.04113507270812988,-0.0060718730092048645,-0.10020160675048828
1379,11000000,imu1_frame,-0.005428588839657792,-0.02522205122282732,-0.053209032243982546,0.9982500575722406,0.0,-0.00390625,-0.0078125,-0.0017094016075134277,0.0015697404742240906,-0.10223197937011719
1379,36000000,imu1_frame,-0.005064252809730413,-0.027688818538575022,-0.05330251397092689,0.998181609065102,-0.001953125,0.0,-0.005859375,-0.04943603277206421,-0.008162625133991241,-0.09975624084472656
1379,61000000,imu1_frame,-0.005402973682352919,-0.025244072504983096,-0.05340436499324873,0.998239209046819,0.001953125,-0.001953125,-0.009765625,-0.00212782621383667,0.0009494870901107788,-0.10221672058105469
1379,86000000,imu1_frame,-0.005409092326566268,-0.027766755759165877,-0.05353456979824572,0.9981652161998684,0.001953125,-0.001953125,-0.009765625,-0.051331520080566406,-0.001643151044845581,-0.09960174560546875
1379,111000000,imu1_frame,-0.006809125031474645,-0.025743416625716595,-0.0536074479725489,0.9982069694400109,0.001953125,-0.001953125,-0.009765625,-0.013349950313568115,-0.0073966458439826965,-0.06232166290283203
1379,136000000,imu1_frame,-0.00822379731853487,-0.02390844746374355,-0.05360451505795159,0.9982421105437995,0.00390625,-0.015625,-0.00390625,0.02095574140548706,0.022136464715003967,-0.06368541717529297
1379,161000000,imu1_frame,-0.006678637226408944,-0.026061573427989506,-0.05375154695502459,0.9981918459871315,0.0,-0.015625,-0.0078125,-0.019431710243225098,-0.010351613163948059,-0.06203269958496094
1379,186000000,imu1_frame,-0.00815353359204789,-0.024233249441531036,-0.053798200328620406,0.9982244352613642,0.0,-0.015625,-0.0078125,0.014669090509414673,0.0203305184841156,-0.10246562957763672
1379,211000000,imu1_frame,-0.005861935317263556,-0.025409796450754644,-0.05395729559926583,0.9982026799254152,0.0,-0.015625,-0.0078125,-0.00588536262512207,0.00945320725440979,-0.10195159912109375
1379,236000000,imu1_frame,-0.0033077120020959874,-0.02530743492116369,-0.05404458455780602,0.998212289875754,0.00390625,0.00390625,-0.001953125,-0.001204758882522583,-0.04031943902373314,-0.10251045227050781
1379,261000000,imu1_frame,-0.005807393651416932,-0.025441355678941752,-0.054078359971836285,0.9981956434401783,0.0,-0.001953125,-0.0078125,-0.0064539313316345215,0.00829470157623291,-0.10193252563476562
1379,286000000,imu1_frame,-0.003322309303306586,-0.025194113844438596,-0.05423823290508974,0.9982046047678903,0.0,-0.001953125,-0.0078125,0.0009821057319641113,-0.040010761469602585,-0.10262012481689453
1379,311000000,imu1_frame,-0.005787468833390421,-0.02543801876823306,-0.05424788757907652,0.998186645422016,0.001953125,0.0,-0.005859375,-0.006382346153259277,0.007824122905731201,-0.10194015502929688
1379,336000000,imu1_frame,-0.0032772936894355158,-0.025140735577042342,-0.05426122827359477,0.998204849651092,0.001953125,0.001953125,0.00390625,0.002069830894470215,-0.04084381088614464,-0.10267925262451172
1379,361000000,imu1_frame,-0.005760547710357337,-0.025414672589540773,-0.05422322761555596,0.9981887357079294,0.0,0.001953125,-0.001953125,-0.005896627902984619,0.0073361024260520935,-0.10196971893310547
1379,386000000,imu1_frame,-0.003260692954297772,-0.025268869816251587,-0.05431122924073721,0.9981989493472867,0.0,0.001953125,-0.001953125,-0.00041285157203674316,-0.04132871329784393,-0.1025543212890625
1379,411000000,imu1_frame,-0.0057034205105271855,-0.025323542074878802,-0.054320033842000764,0.9981861164806219,0.00390625,0.0078125,-0.005859375,-0.004067480564117432,0.006269834935665131,-0.10207271575927734
1379,436000000,imu1_frame,-0.0033614574091916398,-0.025972538791464484,-0.05438638621506163,0.998176461767797,-0.005859375,0.0,0.0,-0.01424330472946167,-0.0401492640376091,-0.101837158203125
1379,461000000,imu1_frame,-0.005821348765886568,-0.02527490299219495,-0.05429887321227169,0.9981878197739934,-0.00390625,0.001953125,0.001953125,-0.003242313861846924,0.008633136749267578,-0.10209465026855469
1379,486000000,imu1_frame,-0.0035075890531500184,-0.02604230048355228,-0.054462198705245754,0.9981700077225066,-0.005859375,-0.001953125,-0.0078125,-0.01576167345046997,-0.037411224097013474,-0.1017465591430664
1379,511000000,imu1_frame,-0.005951537633811131,-0.025267555806495895,-0.05449750641069676,0.9981764130745501,-0.005859375,-0.001953125,-0.0078125,-0.003254503011703491,0.011081688106060028,-0.10207080841064453
1379,536000000,imu1_frame,-0.0035939508489295936,-0.025894566112267058,-0.054685754304635965,0.9981613212498698,-0.005859375,-0.001953125,-0.009765625,-0.012982487678527832,-0.03568267449736595,-0.10188484191894531
1379,561000000,imu1_frame,-0.006101954193938352,-0.025261473713026398,-0.054745572932160105,0.9981620842053612,-0.0078125,-0.001953125,-0.009765625,-0.003318607807159424,0.01389884203672409,-0.10204219818115234
1379,586000000,imu1_frame,-0.00750743633342238,-0.02740657295846069,-0.05484606715160199,0.9980903902334568,-0.0078125,-0.001953125,-0.009765625,-0.007589519023895264,0.003805309534072876,-0.09945964813232422
1379,611000000,imu1_frame,-0.005813425520539866,-0.0256828309209361,-0.05500952538846525,0.9981385416845397,-0.0078125,-0.001953125,-0.009765625,-0.0112496018409729,0.007683262228965759,-0.10169029235839844
1379,636000000,imu1_frame,-0.00390186476174723,-0.02423325593824911,-0.055078677397124055,0.9981802763299804,-0.00390625,-0.0078125,-0.001953125,0.01906338334083557,-0.028083693236112595,-0.10346794128417969
1379,661000000,imu1_frame,-0.0060201329023389484,-0.02577591153813842,-0.05515817825900117,0.9981267132761072,-0.009765625,-0.00390625,-0.009765625,-0.01329869031906128,0.011539779603481293,-0.1015481948852539
1379,686000000,imu1_frame,-0.007798517322014044,-0.02768976252209919,-0.05524804646887755,0.9980581714210953,-0.009765625,-0.00390625,-0.009765625,-0.01347041130065918,0.008958153426647186,-0.09906768798828125
1379,711000000,imu1_frame,-0.006005966697245046,-0.026048050784465968,-0.05536313709279221,0.9981083861312889,-0.00390625,-0.00390625,-0.005859375,0.020454049110412598,-0.024292677640914917,-0.10127639770507812
1379,736000000,imu1_frame,-0.005285250007902225,-0.028471675365764126,-0.05546815892336934,0.9980404366456663,-0.00390625,-0.00390625,-0.005859375,-0.026023507118225098,-0.005886159837245941,-0.09885215759277344
1379,761000000,imu1_frame,-0.005950611047689627,-0.026079095915285695,-0.055489938245140764,0.9981008655130758,-0.001953125,-0.001953125,-0.00390625,0.0198972225189209,0.009684480726718903,-0.10125732421875
1379,786000000,imu1_frame,-0.005281311058170125,-0.028455961633542654,-0.055592655285389106,0.9980339787198313,-0.001953125,0.001953125,-0.005859375,-0.025722026824951172,-0.006015874445438385,-0.09887027740478516
1379,811000000,imu1_frame,-0.005447709274459205,-0.02593937050845043,-0.055653034686274354,0.9980982973893376,-0.001953125,0.001953125,-0.005859375,-0.015909790992736816,-5.857646465301514e-05,-0.10151195526123047
1379,836000000,imu1_frame,-0.005537774738406648,-0.023414451044889345,-0.055593170048245676,0.998163561735851,-0.001953125,0.001953125,0.00390625,0.03323006629943848,0.004479825496673584,-0.1039276123046875
1379,861000000,imu1_frame,-0.005441148271900728,-0.0258848898806453,-0.05553288449518048,0.9981064397753354,0.0,0.001953125,0.005859375,-0.014830172061920166,-6.57886266708374e-05,-0.10156822204589844
1379,886000000,imu1_frame,-0.005532498624877078,-0.023365026574358322,-0.055447381292062795,0.9981728582264687,0.0,0.001953125,0.005859375,0.034211665391922,0.004498176276683807,-0.1039743423461914
1379,911000000,imu1_frame,-0.0054401295598031155,-0.0258376725907436,-0.05538700120377484,0.9981157747291238,0.0,0.001953125,0.005859375,-0.013897120952606201,4.028528928756714e-05,-0.10161590576171875
1379,936000000,imu1_frame,-0.005468310151915879,-0.02319564350905369,-0.05539847884972327,0.9981798777011185,0.00390625,0.01171875,-0.001953125,0.03758823871612549,0.0034522637724876404,-0.1041421890258789
1379,961000000,imu1_frame,-0.0053968681478124,-0.025552328177073133,-0.055433128619254625,0.9981207945887148,0.00390625,0.01171875,-0.001953125,-0.008290469646453857,-0.0005173534154891968,-0.10191154479980469
1379,986000000,imu1_frame,-0.007814905947531248,-0.025063308232812935,-0.055391576757589316,0.9981194973798309,0.00390625,0.01171875,-0.001953125,-0.0013629496097564697,0.012053444981575012,-0.10177135467529297
1380,11000000,imu1_frame,-0.005373595853897763,-0.025789987368648497,-0.055406450709594476,0.9981162889357579,0.009765625,0.01953125,0.00390625,-0.012897372245788574,-0.03637214004993439,-0.10167789459228516
1380,36000000,imu1_frame,-0.005744831500837735,-0.023107862339819884,-0.05533287397027987,0.9981839994045686,0.009765625,0.01953125,0.00390625,0.0390070378780365,0.008972801268100739,-0.10416126251220703
1380,61000000,imu1_frame,-0.005198912673435204,-0.025379358769871924,-0.05532296292882679,0.9981323705943114,0.017578125,0.017578125,0.001953125,-0.004695892333984375,-0.00413629412651062,-0.10212516784667969
1380,86000000,imu1_frame,-0.0075271945185417235,-0.025077690345332932,-0.05525780412645307,0.9981287621708665,0.01171875,0.03515625,0.0,-0.0013169348239898682,0.04164770245552063,-0.10184288024902344
1380,111000000,imu1_frame,-0.005332905638698867,-0.023179653705569053,-0.055299741570722816,0.9981864567072376,0.01171875,0.03515625,0.0,0.00289800763130188,0.0008730366826057434,-0.06512260437011719
1380,136000000,imu1_frame,-0.005220810648907653,-0.025535356553932666,-0.055235293586467955,0.9981331329257878,0.0078125,0.01171875,0.005859375,-0.04291093349456787,-0.0038338974118232727,-0.06290245056152344
1380,161000000,imu1_frame,-0.005283707847049578,-0.02290336297014826,-0.05514648785461878,0.9982015744694781,0.0078125,0.01171875,0.005859375,0.008351057767868042,0.0002819374203681946,-0.10444450378417969
1380,186000000,imu1_frame,-0.005422092682312745,-0.02524951642005136,-0.05507614139891985,0.9981481260214359,0.0078125,0.01171875,0.005859375,-0.03754177689552307,0.0004820004105567932,-0.10220718383789062
1380,211000000,imu1_frame,-0.005207440272651391,-0.02261326727210182,-0.05499395192636161,0.9982170044437274,0.0078125,0.01171875,0.005859375,0.014102369546890259,-0.0008244961500167847,-0.10471820831298828
1380,236000000,imu1_frame,-0.0054798478795096955,-0.02486830491072483,-0.05482441073273287,0.9981712391498232,0.005859375,0.017578125,0.013671875,-0.03015044331550598,0.0021441057324409485,-0.1025686264038086
1380,261000000,imu1_frame,-0.005132761429165954,-0.022169277787964112,-0.054649471640165995,0.9982462687793638,0.005859375,0.017578125,0.013671875,0.02286776900291443,-0.0016521662473678589,-0.10512161254882812
1380,286000000,imu1_frame,-0.002651429453863767,-0.021248670418128175,-0.054529232755354186,0.9982825385142351,0.005859375,0.017578125,0.013671875,0.004410982131958008,-0.00997237116098404,-0.07112503051757812
1380,311000000,imu1_frame,-0.004670524692798194,-0.022540964785737336,-0.05446059299481511,0.9982505371480023,0.005859375,0.005859375,0.001953125,-0.0229378342628479,0.02807725965976715,-0.06972980499267578
1380,336000000,imu1_frame,-0.002483223401649254,-0.021128941591074177,-0.054478168787398785,0.9982883003192767,0.005859375,0.005859375,0.001953125,0.006926596164703369,-0.01310567557811737,-0.07124137878417969
1380,361000000,imu1_frame,-0.004488252101364059,-0.022445394075311115,-0.05440990791925855,0.9982562906378784,0.005859375,0.005859375,0.001953125,-0.02087700366973877,0.02464507520198822,-0.06984519958496094
1380,386000000,imu1_frame,-0.002395280507321471,-0.02108197587939188,-0.054428363101462936,0.9982922248592379,0.0,0.0,0.001953125,0.007937520742416382,-0.014751056209206581,-0.0712881088256836
1380,411000000,imu1_frame,-0.0043216764685717465,-0.022673645600785507,-0.05436500158580377,0.9982543140453972,0.0,0.0,0.001953125,0.013913542032241821,-0.01789085566997528,-0.06576728820800781
1380,436000000,imu1_frame,-0.006171488309989235,-0.024221270502496475,-0.054275531156994086,0.9982131082614127,0.005859375,0.00390625,0.00390625,-0.018220633268356323,0.01659730076789856,-0.06396865844726562
1380,461000000,imu1_frame,-0.004220121974404477,-0.022526973675989836,-0.054263168446463,0.9982636097633095,0.005859375,0.00390625,0.00390625,-0.022175133228302002,0.019391529262065887,-0.06982040405273438
1380,486000000,imu1_frame,-0.0058671697127966015,-0.020667508129267712,-0.05416824870930644,0.9983006717713129,0.005859375,0.00390625,0.00390625,0.012358009815216064,0.014483138918876648,-0.07106590270996094
1380,511000000,imu1_frame,-0.003456634527523243,-0.021519250331184295,-0.05417130827076771,0.9982937658340657,0.005859375,0.00390625,0.00390625,-0.001707613468170166,0.0056029558181762695,-0.1098642349243164
1380,536000000,imu1_frame,-0.0013161338419605398,-0.023014649841737015,-0.054144253141446545,0.9982669951150982,0.005859375,-0.0078125,0.005859375,-0.028609246015548706,-0.037738334154710174,-0.10876274108886719
1380,561000000,imu1_frame,-0.003296294069808483,-0.02167809837714821,-0.0540218825327768,0.9982989685979701,0.005859375,-0.0078125,0.005859375,-0.004630416631698608,0.0023695863783359528,-0.10975265502929688
1380,586000000,imu1_frame,-0.0050833939531446425,-0.023457257829030898,-0.05390978972221374,0.9982573068769226,0.005859375,-0.0078125,0.005859375,-0.0021427273750305176,-0.003651157021522522,-0.06492042541503906
1380,611000000,imu1_frame,-0.007526934799558223,-0.023872013037168384,-0.05385212780437197,0.998235152945947,0.001953125,0.0,0.0,-0.012792110443115234,0.04361646622419357,-0.063934326171875
1380,636000000,imu1_frame,-0.005270988718546651,-0.022749659303239765,-0.053898487662338256,0.9982733206428129,0.001953125,0.0,0.0,-0.02760186791419983,0.03982429951429367,-0.1084909439086914
1380,661000000,imu1_frame,-0.002993789156645953,-0.021591768899411282,-0.053943981495499685,0.9983060049918027,0.00390625,0.001953125,0.0,-0.002624720335006714,-0.0034090280532836914,-0.1098623275756836
1380,686000000,imu1_frame,-0.005189091597350064,-0.022649715635218767,-0.05387175440471786,0.9982774653308546,0.00390625,0.00390625,0.001953125,-0.02556416392326355,0.03834369778633118,-0.1085958480834961
1380,711000000,imu1_frame,-0.002883217146380528,-0.02151935972760969,-0.053893701434674944,0.9983106095607072,0.00390625,0.00390625,0.001953125,-0.0010942518711090088,-0.00546896830201149,-0.10993576049804688
1380,736000000,imu1_frame,-0.004998735358375673,-0.022707216637407452,-0.05384670522752993,0.9982784818343718,0.005859375,0.001953125,0.0,-0.026483625173568726,0.03457983583211899,-0.1085824966430664
1380,761000000,imu1_frame,-0.002744122578039243,-0.021459016416069714,-0.05389039139963506,0.9983124791970325,0.005859375,0.001953125,0.0,0.00022917985916137695,-0.008118215948343277,-0.1100015640258789
1380,786000000,imu1_frame,-0.0032744823438977306,-0.023863236533589394,-0.05387951175495539,0.9982568917470939,0.005859375,0.001953125,0.0,-0.008156180381774902,-0.00029982998967170715,-0.10390281677246094
1380,811000000,imu1_frame,-0.0036142224823125253,-0.02137869294620113,-0.05386283956135358,0.9983129185772105,0.005859375,0.001953125,0.0,0.03994432091712952,0.00895722582936287,-0.10605430603027344
1380,836000000,imu1_frame,-0.003209797903695492,-0.023883190557798212,-0.05384990650707353,0.9982582220925491,0.005859375,-0.001953125,0.001953125,-0.008476167917251587,-0.0015691295266151428,-0.10389232635498047
1380,861000000,imu1_frame,-0.004245786387612701,-0.021672094769952646,-0.05379264148054286,0.9983078910480369,0.005859375,-0.001953125,0.001953125,0.033561766147613525,0.02100210264325142,-0.10571002960205078
1380,886000000,imu1_frame,-0.0030623609879953445,-0.023941256259275262,-0.053797621013090095,0.99826011348107,0.005859375,-0.001953125,0.001953125,-0.009451836347579956,-0.004482623189687729,-0.06479358673095703
1380,911000000,imu1_frame,-0.004445012615543991,-0.021884360906039728,-0.05376043643542968,0.9983041280515943,0.0,-0.001953125,0.0,0.029214590787887573,0.024680063128471375,-0.06643295288085938
1380,936000000,imu1_frame,-0.0030683932318334287,-0.023933631304367195,-0.05387168921802082,0.9982562834043964,-0.001953125,0.001953125,-0.005859375,-0.00931212306022644,-0.004391767084598541,-0.06480026245117188
1380,961000000,imu1_frame,-0.00432845595648428,-0.021836717972481375,-0.05385605418184268,0.9983005297229816,0.009765625,0.001953125,-0.001953125,0.03026023507118225,0.022414516657590866,-0.06649398803710938
1380,986000000,imu1_frame,-0.0029350683288682047,-0.02392546715893443,-0.05383954327958289,0.9982586142751674,0.009765625,0.005859375,0.00390625,-0.009011626243591309,-0.006969582289457321,-0.06482315063476562
1381,11000000,imu1_frame,-0.004825876413742668,-0.022236474128561615,-0.05384217405047477,0.998290173460947,-0.00390625,0.0,-0.00390625,0.02194160223007202,0.03170536458492279,-0.06606101989746094
1381,36000000,imu1_frame,-0.002953908693953727,-0.023874483315877205,-0.05391453828454451,0.9982557317798844,0.0,0.001953125,-0.001953125,-0.008039623498916626,-0.006583455950021744,-0.06486892700195312
1381,61000000,imu1_frame,-0.0032273277722616785,-0.021364721966799546,-0.05392807122089261,0.9983110217487966,0.0,0.001953125,-0.001953125,0.0015584826469421387,0.0013946369290351868,-0.11002445220947266
1381,86000000,imu1_frame,-0.002775660280387434,-0.023796883751236158,-0.05396711881956326,0.9982552549924558,0.0,0.001953125,-0.001953125,-0.0454026460647583,-0.010004330426454544,-0.06886672973632812
1381,111000000,imu1_frame,-0.0032643026819151456,-0.021319963925994945,-0.05397600734007814,0.9983092677611579,0.0,0.001953125,-0.001953125,0.002390533685684204,0.002143271267414093,-0.11005687713623047
1381,136000000,imu1_frame,-0.002771529139021159,-0.023780693204637698,-0.05401387278129719,0.9982531236134973,0.00390625,0.0,-0.001953125,-0.0450839102268219,-0.010089712217450142,-0.10794544219970703
1381,161000000,imu1_frame,-0.003196052295861642,-0.021334167012597556,-0.05409387542185347,0.9983028053699166,0.005859375,0.0,-0.0078125,0.002180635929107666,0.0007468946278095245,-0.11005306243896484
1381,186000000,imu1_frame,-0.0032385951814819327,-0.023833705843470773,-0.054192178476017656,0.9982407894686737,0.005859375,0.0,-0.0078125,-0.007554471492767334,-0.0011156797409057617,-0.10393524169921875
1381,211000000,imu1_frame,-0.00443809290283708,-0.02163785530684189,-0.05413686172058241,0.9982891899405465,-0.00390625,-0.001953125,0.001953125,0.03400588035583496,0.024643562734127045,-0.10570716857910156
1381,236000000,imu1_frame,-0.003238771892617748,-0.023853366940078443,-0.054121245640614886,0.9982441675324518,0.0,-0.001953125,0.00390625,-0.007935494184494019,-0.001099761575460434,-0.10391616821289062
1381,261000000,imu1_frame,-0.004251984319274836,-0.02159086328166143,-0.054043550402896205,0.9982960732728295,0.0,-0.001953125,0.00390625,0.035124510526657104,0.02110159769654274,-0.10577774047851562
1381,286000000,imu1_frame,-0.003230895914089545,-0.02389553939731755,-0.054023862655810516,0.9982484594389563,0.0,-0.001953125,0.00390625,-0.00874587893486023,-0.0012523047626018524,-0.10387802124023438
1381,311000000,imu1_frame,-0.004163570517126595,-0.02160323097046104,-0.05399899219599657,0.9982985895682728,-0.00390625,-0.00390625,0.0,0.03497910499572754,0.019382257014513016,-0.10578250885009766
1381,336000000,imu1_frame,-0.0032935152244998834,-0.024010508400523052,-0.054051948063635565,0.998243975766616,-0.005859375,-0.0078125,-0.001953125,-0.011055141687393188,-0.00016529858112335205,-0.10376262664794922
1381,361000000,imu1_frame,-0.003474222185452988,-0.021609513342486,-0.05407014959220313,0.9982972391208863,-0.005859375,-0.0078125,-0.001953125,0.03557989001274109,0.005893591791391373,-0.1058797836303711
1381,386000000,imu1_frame,-0.0010509553341790645,-0.02165491684576505,-0.054149948392005084,0.9982974221936225,-0.005859375,-0.0078125,-0.001953125,-0.0018088817596435547,-0.041475531877949834,-0.07089996337890625
1381,411000000,imu1_frame,-0.0029814319771207065,-0.023424598908323897,-0.05413523536716742,0.9982543641382647,-0.005859375,-0.0078125,-0.001953125,0.0006978213787078857,-0.00567341223359108,-0.10434436798095703
1381,436000000,imu1_frame,-0.004852215902481308,-0.024977221071743362,-0.054067170725176854,0.998213071181771,0.00390625,0.00390625,0.001953125,-0.03155156970024109,0.029217593371868134,-0.10258865356445312
1381,461000000,imu1_frame,-0.0028771847880066704,-0.02333559858823603,-0.05408457309832243,0.9982595006304708,0.00390625,0.00390625,0.001953125,0.0025447607040405273,-0.0075899697840213776,-0.10443782806396484
1381,486000000,imu1_frame,-0.004741200674559108,-0.024898003432442518,-0.05401670725433567,0.9982183156898299,0.00390625,0.00390625,0.001953125,-0.029886513948440552,0.027160227298736572,-0.10268688201904297
1381,511000000,imu1_frame,-0.002304150067829443,-0.02409681295238239,-0.05404857107320633,0.9982448529609091,0.00390625,0.00390625,0.001953125,-0.011694461107254028,0.01950235478579998,-0.1037893295288086
1381,536000000,imu1_frame,0.00018382352297269903,-0.02326517314209282,-0.05412885878227317,0.9982628734829869,0.005859375,0.01171875,-0.001953125,0.007153809070587158,-0.028203070163726807,-0.10466289520263672
1381,561000000,imu1_frame,-0.002218500342073628,-0.023430125801470466,-0.054093203310771186,0.9982584999972397,0.005859375,0.01171875,-0.001953125,0.0013969838619232178,-0.020546922460198402,-0.1044168472290039
1381,586000000,imu1_frame,-0.0045671816058037275,-0.023883231047067667,-0.05405942604652924,0.9982416093223383,0.005859375,0.01171875,-0.001953125,-0.009917020797729492,0.024818338453769684,-0.10368633270263672
1381,611000000,imu1_frame,-0.0020386931524381167,-0.02337335684769569,-0.05409277039865377,0.9982602376687649,0.00390625,0.01171875,0.001953125,0.0026939213275909424,-0.02399521693587303,-0.10448360443115234
1381,636000000,imu1_frame,-0.004379857444267875,-0.023824376430089934,-0.05398616899564713,0.9982478196788905,0.005859375,0.013671875,0.00390625,-0.00856730341911316,0.021259959787130356,-0.1037740707397461
1381,661000000,imu1_frame,-0.0030883321487704543,-0.02147298948936776,-0.053958572884802644,0.9983074903751669,0.005859375,0.013671875,0.00390625,-0.0004082322120666504,-0.0014448799192905426,-0.10995101928710938
1381,686000000,imu1_frame,-0.004118379473744182,-0.02354254633190877,-0.05388892905403698,0.9982608731128998,0.005859375,0.013671875,0.00390625,-0.04185250401496887,0.016500938683748245,-0.10798454284667969
1381,711000000,imu1_frame,-0.002921591222783676,-0.021137540581454957,-0.05385908073039484,0.9983205237326191,0.005859375,0.013671875,0.00390625,0.006314009428024292,-0.004303019493818283,-0.11025047302246094
1381,736000000,imu1_frame,-0.003998669711299713,-0.02335488997072975,-0.05388772219573892,0.9982658329080234,0.001953125,0.001953125,-0.00390625,-0.0380668044090271,0.01436363160610199,-0.10817527770996094
1381,761000000,imu1_frame,-0.001611577916816048,-0.024155770933309773,-0.05399364150913839,0.9982477589375385,0.001953125,0.001953125,-0.00390625,-0.012112587690353394,-0.03311046864837408,-0.06472492218017578
1381,786000000,imu1_frame,-0.0029367622471498066,-0.02203087719502481,-0.054008288813377145,0.998293103560759,0.001953125,0.001953125,-0.00390625,-0.01113167405128479,-0.005013294517993927,-0.10949420928955078
1381,811000000,imu1_frame,-0.0044338188112800865,-0.020025172064042498,-0.05401917414676437,0.9983292355526086,0.001953125,0.001953125,-0.00390625,0.026411890983581543,0.02631627768278122,-0.11092758178710938
1381,836000000,imu1_frame,-0.002871240364564441,-0.022088398384154027,-0.05415168190757549,0.9982842551008069,0.005859375,-0.00390625,-0.0078125,-0.012188762426376343,-0.006415039300918579,-0.1094522476196289
1381,861000000,imu1_frame,-0.004395518105649058,-0.020215175901664148,-0.05420856441732989,0.9983153097231655,0.005859375,-0.00390625,-0.0078125,0.022733718156814575,0.025292202830314636,-0.11078453063964844
1381,886000000,imu1_frame,-0.0026825144568386064,-0.022157741020737958,-0.05434390909387299,0.9982727974724362,0.005859375,-0.00390625,-0.0078125,-0.013347208499908447,-0.01025502011179924,-0.07034969329833984
1381,911000000,imu1_frame,-0.004397308751060358,-0.020316353784833912,-0.054328269907067156,0.998306740703248,-0.001953125,0.0,-0.001953125,0.020750582218170166,0.025171637535095215,-0.0716409683227539
1381,936000000,imu1_frame,-0.0027128412757567878,-0.02216611164211771,-0.054369602941752755,0.9982711306367813,-0.001953125,-0.001953125,0.0,-0.013543397188186646,-0.009683357551693916,-0.07033920288085938
1381,961000000,imu1_frame,-0.0036848567141322865,-0.02449957702386663,-0.05435228816192476,0.9982144165099053,-0.001953125,-0.001953125,0.0,-0.021019071340560913,0.00680818036198616,-0.06418323516845703
1381,986000000,imu1_frame,-0.0026021534145466967,-0.02211156621219891,-0.05429577749037516,0.9982766530295929,0.0078125,0.0078125,0.005859375,0.02670198678970337,-0.011753056198358536,-0.06649208068847656
1382,11000000,imu1_frame,-9.362564186620899e-05,-0.021343231023556612,-0.054273126723922274,0.9982979943079738,0.0078125,0.0078125,0.005859375,0.005286127328872681,-0.02081572636961937,-0.0711832046508789
1382,36000000,imu1_frame,-0.0025582322828903332,-0.022143599590008577,-0.054272420275084825,0.998277326619346,-0.0078125,0.0,-0.00390625,-0.012937694787979126,0.02642850950360298,-0.0703744888305664
1382,61000000,imu1_frame,-0.004699311371476761,-0.02070202620069417,-0.05427570066666824,0.9983003009620711,-0.0078125,0.0,-0.00390625,0.012911170721054077,0.030676059424877167,-0.11034107208251953
1382,86000000,imu1_frame,-0.0027076205821889828,-0.02207740703258042,-0.05437494149136719,0.9982728197378266,-0.0078125,0.0,-0.00390625,-0.011807948350906372,-0.009693168103694916,-0.10947895050048828
1382,111000000,imu1_frame,-0.001222749396433205,-0.0240103503103499,-0.05446368909153345,0.9982262842324022,-0.0078125,0.0,-0.00390625,-0.00886574387550354,-0.001702783047221601,-0.10394573211669922
1382,136000000,imu1_frame,-0.0021460180805447683,-0.0217126828629834,-0.054395153173033436,0.9982810833230145,-0.00390625,-0.00390625,0.00390625,0.03496384620666504,0.018789999186992645,-0.10593795776367188
1382,161000000,imu1_frame,-0.004701481352299621,-0.021705098275693366,-0.054292563713844784,0.9982780686298354,-0.00390625,-0.00390625,0.00390625,-0.006656914949417114,0.029644981026649475,-0.10950946807861328
1382,186000000,imu1_frame,-0.0022539273256336565,-0.021726014475262748,-0.05429923309997384,0.9982857774161596,-0.00390625,-0.00390625,0.00390625,-0.004471123218536377,-0.018140051513910294,-0.10982418060302734
1382,211000000,imu1_frame,-0.004801208007800177,-0.021629385935406652,-0.05419677378792429,0.9982844423192738,-0.00390625,0.0,0.00390625,-0.0052790045738220215,0.03171243518590927,-0.10955429077148438
1382,236000000,imu1_frame,-0.0022804312018962812,-0.021725908624063893,-0.0542022762038874,0.9982909885310544,0.001953125,0.0,0.00390625,-0.004495143890380859,-0.017581339925527573,-0.10982131958007812
1382,261000000,imu1_frame,-0.0047582561242736805,-0.021631317039947796,-0.05409814740472731,0.9982899556587502,0.001953125,0.0,0.00390625,-0.005264401435852051,0.030914470553398132,-0.10956096649169922
1382,286000000,imu1_frame,-0.00221128037927208,-0.021704808654479532,-0.05412760048614689,0.9982956547966984,0.00390625,0.001953125,0.001953125,-0.004008889198303223,-0.018876487389206886,-0.10984611511230469
1382,311000000,imu1_frame,-0.003367271382788387,-0.023872926355576602,-0.05407804593998717,0.9982456159773346,0.00390625,0.001953125,0.001953125,-0.008450806140899658,0.001407179981470108,-0.1038818359375
1382,336000000,imu1_frame,-0.002554685568703644,-0.021412094140835256,-0.054117054462588195,0.9983017280474086,0.0,0.0078125,-0.001953125,0.040400028228759766,-0.011860903352499008,-0.1061544418334961
1382,361000000,imu1_frame,-0.004845661963617107,-0.022306815490120646,-0.054093456741749715,0.998274923796322,0.0,0.0078125,-0.001953125,-0.018531084060668945,0.031906358897686005,-0.10896492004394531
1382,386000000,imu1_frame,-0.00249639807567931,-0.0213319350423901,-0.05416776677746907,0.9983008412228934,0.0,0.0078125,-0.001953125,0.0029614269733428955,-0.012934722006320953,-0.11013317108154297
1382,411000000,imu1_frame,-0.004717071329854518,-0.022368034760026773,-0.05414599713203546,0.9982713214620667,0.0,0.0078125,-0.001953125,-0.019593089818954468,0.02930907905101776,-0.10893535614013672
1382,436000000,imu1_frame,-0.0023508897854614104,-0.021157097286933466,-0.05421745632991863,0.9983022177580902,0.005859375,0.015625,-0.001953125,0.006524503231048584,-0.015609534457325935,-0.11029243469238281
1382,461000000,imu1_frame,-0.004385515157002752,-0.022294032509593064,-0.05419714055968988,0.9982717131755374,0.005859375,0.015625,-0.001953125,-0.01780259609222412,0.022895365953445435,-0.10905933380126953
1382,486000000,imu1_frame,-0.002053969997722993,-0.02320227736521077,-0.05427462621886563,0.998254326552667,0.005859375,0.015625,-0.001953125,0.006011635065078735,0.015463549643754959,-0.10463809967041016
1382,511000000,imu1_frame,-0.0001464834380192514,-0.024754438033430252,-0.05434673441905282,0.9982152216822964,-0.00390625,0.0,-0.001953125,-0.022233188152313232,-0.02343900315463543,-0.10326576232910156
1382,536000000,imu1_frame,-0.002025619586227147,-0.023190289190591344,-0.05432397582596294,0.9982519787122932,0.00390625,-0.001953125,-0.001953125,0.00627446174621582,0.014900613576173782,-0.10465145111083984
