timestamp_sec,timestamp_nsec,frame_id,orientation_x,orientation_y,orientation_z,orientation_w,angular_velocity_x,angular_velocity_y,angular_velocity_z,linear_acceleration_x,linear_acceleration_y,linear_acceleration_z
604,471000000,imu1_frame,0.026763998396121483,-0.00992877337510812,-0.7839063804718737,0.6202224556597448,0.001953125,0.0,-0.001953125,-0.014951080083847046,0.0194777250289917,-0.13837718963623047
604,491000000,imu1_frame,0.02870225202792928,-0.010455042593001774,-0.7838626101441241,0.6201824580161429,0.0,0.001953125,0.0,0.008351951837539673,-0.012052774429321289,-0.13606643676757812
604,511000000,imu1_frame,0.026744314648663624,-0.009993110142103606,-0.7839161403441733,0.6202099356601404,-0.001953125,0.0,-0.001953125,-0.016025185585021973,0.018735289573669434,-0.13837337493896484
604,531000000,imu1_frame,0.028663179204349836,-0.010423610734338819,-0.783887126201592,0.6201538066258787,-0.00390625,0.0,-0.001953125,0.00815388560295105,-0.011086463928222656,-0.1361227035522461
604,551000000,imu1_frame,0.026671867810624382,-0.010146621287313732,-0.783937364090244,0.6201837362646531,0.0,-0.001953125,-0.001953125,-0.018980085849761963,0.017270654439926147,-0.13838768005371094
604,571000000,imu1_frame,0.028623509818104804,-0.010417682764104985,-0.783888783252895,0.6201536439156147,-0.001953125,-0.001953125,0.001953125,0.007618933916091919,-0.010515093803405762,-0.13616943359375
604,591000000,imu1_frame,0.026676012954786568,-0.010133369704502055,-0.7839376436163278,0.6201834213138462,0.001953125,0.001953125,-0.001953125,-0.018755704164505005,0.017423629760742188,-0.13838958740234375
604,611000000,imu1_frame,0.028640462472521975,-0.010408571442248625,-0.7838760368148162,0.620169125688621,-0.001953125,0.0,0.00390625,0.007978826761245728,-0.010587096214294434,-0.1361551284790039
604,631000000,imu1_frame,0.026625142359788655,-0.010199484280481829,-0.7839244594202046,0.6202011885166567,-0.001953125,-0.001953125,-0.001953125,-0.020347148180007935,0.01702055335044861,-0.13841629028320312
604,651000000,imu1_frame,0.028625679366567236,-0.010421344246758774,-0.783900757017088,0.6201383468331317,0.001953125,0.0,-0.001953125,0.007617592811584473,-0.010591387748718262,-0.13616561889648438
604,671000000,imu1_frame,0.026625762549890176,-0.010108869646305712,-0.7839515813372713,0.6201683623355052,-0.001953125,-0.001953125,-0.001953125,-0.019218534231185913,0.01841333508491516,-0.13845157623291016
604,691000000,imu1_frame,0.028589056607365996,-0.010401698796553551,-0.7839380250095174,0.6200932538325375,-0.001953125,0.0,-0.00390625,0.007324546575546265,-0.009828805923461914,-0.1362152099609375
604,711000000,imu1_frame,0.02661432624408089,-0.010226192605728886,-0.7839719506455335,0.6201411800746677,0.0,0.001953125,0.0,-0.020799994468688965,0.016764163970947266,-0.13841724395751953
604,731000000,imu1_frame,0.0285782392866023,-0.010401004556045283,-0.7839499314694696,0.6200787113685784,-0.001953125,-0.001953125,-0.001953125,0.007176786661148071,-0.009681284427642822,-0.13622760772705078
604,751000000,imu1_frame,0.026574062563904058,-0.010253389688569344,-0.783984801225156,0.6201262118687587,0.0,-0.001953125,0.0,-0.02173703908920288,0.01684066653251648,-0.13844680786132812
604,771000000,imu1_frame,0.028529013122836334,-0.01037926323371398,-0.7839759771075716,0.6200484123221273,-0.00390625,-0.001953125,-0.00390625,0.006706655025482178,-0.008739829063415527,-0.1362905502319336
604,791000000,imu1_frame,0.026553548578549347,-0.010430196150054787,-0.7839908861413581,0.6201164491556777,-0.001953125,0.00390625,0.001953125,-0.02418944239616394,0.01438361406326294,-0.138397216796875
604,811000000,imu1_frame,0.028552179399756204,-0.010381679229089905,-0.7839497097144014,0.6200805160836893,0.0,0.0,0.001953125,0.007011145353317261,-0.009070217609405518,-0.13626480102539062
604,831000000,imu1_frame,0.026578558951115463,-0.010449262456609817,-0.7839787039129246,0.6201304579918696,0.00390625,0.0,0.0,-0.024046480655670166,0.013783514499664307,-0.13836383819580078
604,851000000,imu1_frame,0.028647049101801943,-0.010372104265639786,-0.7839481068369158,0.6200783271633327,0.00390625,0.005859375,0.0,0.008580595254898071,-0.010071814060211182,-0.13616180419921875
604,871000000,imu1_frame,0.026699613798849654,-0.010402730173542983,-0.7839862637616478,0.6201164826554612,-0.001953125,0.0078125,-0.001953125,-0.021620452404022217,0.013034850358963013,-0.13825702667236328
604,891000000,imu1_frame,0.028709136154122634,-0.010396762927077603,-0.7839681523907499,0.6200496987008025,0.001953125,0.0,-0.001953125,0.009250164031982422,-0.011190295219421387,-0.13608264923095703
604,911000000,imu1_frame,0.02674080149165028,-0.010334315253715635,-0.7839996537566011,0.6200989230544999,0.001953125,0.001953125,0.0,-0.02014949917793274,0.013590574264526367,-0.13824176788330078
604,931000000,imu1_frame,0.028763470147051995,-0.01040084718510742,-0.7839545893835536,0.6200642603371005,0.001953125,0.001953125,0.001953125,0.01002269983291626,-0.011916816234588623,-0.13601970672607422
604,951000000,imu1_frame,0.026839437931737053,-0.010315215882436968,-0.7839731554796072,0.6201284805426652,0.00390625,0.005859375,0.001953125,-0.018426179885864258,0.012677490711212158,-0.13814544677734375
604,971000000,imu1_frame,0.02882172908650012,-0.010388859279764472,-0.7839645786201132,0.6200491262830053,-0.001953125,0.0,-0.00390625,0.01106947660446167,-0.012432754039764404,-0.13595962524414062
604,991000000,imu1_frame,0.026807944222462965,-0.010385981097379085,-0.7840204530947922,0.6200688628307723,0.0,-0.001953125,-0.00390625,-0.019729673862457275,0.01199638843536377,-0.13815021514892578
605,11000000,imu1_frame,0.028862172771504522,-0.010365610997190052,-0.7839999810161892,0.6200028700402747,0.001953125,0.005859375,-0.001953125,0.012000441551208496,-0.012547791004180908,-0.1359233856201172
605,31000000,imu1_frame,0.026852775732709937,-0.010467911357707064,-0.7840168430705543,0.6200701097851257,0.0,-0.001953125,0.001953125,-0.020037978887557983,0.010197728872299194,-0.13806915283203125
605,51000000,imu1_frame,0.028861456235301546,-0.010350365659055925,-0.7839762007881392,0.6200332272326192,0.0,0.001953125,0.001953125,0.012154579162597656,-0.012317776679992676,-0.13593006134033203
605,71000000,imu1_frame,0.026898395709833434,-0.010501434708278412,-0.7840023573806625,0.6200858809865526,0.001953125,0.001953125,0.0,-0.01975587010383606,0.009125500917434692,-0.13800716400146484
605,91000000,imu1_frame,0.028940930527026894,-0.010380781399363739,-0.7839622803018282,0.6200466151683487,0.005859375,0.001953125,0.001953125,0.012993276119232178,-0.013751804828643799,-0.13582706451416016
605,111000000,imu1_frame,0.026954736312600435,-0.010414310870305591,-0.7839804588702589,0.6201125901229493,0.001953125,0.0,0.001953125,-0.017853498458862305,0.009768277406692505,-0.1379842758178711
605,131000000,imu1_frame,0.02895578697142502,-0.010346040321855083,-0.7839502380612876,0.620061727648284,-0.001953125,0.001953125,0.0,0.013632088899612427,-0.013405561447143555,-0.13582515716552734
605,151000000,imu1_frame,0.026962650355022745,-0.010481641688091823,-0.783965520346694,0.6201299973238613,0.0,0.0,0.001953125,-0.01855984330177307,0.008634477853775024,-0.13794898986816406
605,171000000,imu1_frame,0.028987082482535766,-0.010320768086010295,-0.7839370490121177,0.6200773612876362,0.0,0.00390625,0.0,0.014407426118850708,-0.01340395212173462,-0.13579940795898438
605,191000000,imu1_frame,0.02705947171497475,-0.010508411827381823,-0.7839485757378982,0.6201467478507757,0.001953125,0.005859375,0.001953125,-0.017412930727005005,0.007045060396194458,-0.13783550262451172
605,211000000,imu1_frame,0.02909386856197154,-0.010284943080642971,-0.7839086829575939,0.6201088158876772,0.0,0.005859375,0.001953125,0.01645556092262268,-0.014161467552185059,-0.13569355010986328
605,231000000,imu1_frame,0.027102752099356565,-0.010541346680929067,-0.7839448475676511,0.620149011779367,-0.001953125,0.0,-0.001953125,-0.01715141534805298,0.006015270948410034,-0.13777542114257812
605,251000000,imu1_frame,0.029041564420798142,-0.01030612600754029,-0.7839094668612615,0.6201099249874995,-0.001953125,-0.00390625,0.001953125,0.015397578477859497,-0.013852834701538086,-0.1357440948486328
605,271000000,imu1_frame,0.027072539390937737,-0.010525726610032721,-0.7839217300158442,0.6201798190035074,0.0,0.001953125,0.001953125,-0.017443686723709106,0.006609499454498291,-0.13781452178955078
605,291000000,imu1_frame,0.029092201274091404,-0.010255727095662725,-0.7839191867840919,0.6200960993898729,-0.001953125,0.005859375,-0.00390625,0.01679268479347229,-0.013688504695892334,-0.13570690155029297
605,311000000,imu1_frame,0.02717191272407923,-0.010571665846709434,-0.7839512681961732,0.6201373526354884,0.0,0.005859375,-0.001953125,-0.016453444957733154,0.004717320203781128,-0.13769054412841797
605,331000000,imu1_frame,0.02922706341066559,-0.010275249915487778,-0.7839138466915123,0.6200961852558676,0.005859375,0.005859375,0.001953125,0.01861947774887085,-0.01562124490737915,-0.1355447769165039
605,351000000,imu1_frame,0.027290895786718887,-0.010492695292135805,-0.7839247068722216,0.6201670454869127,0.0,0.005859375,0.001953125,-0.0136929452419281,0.004474669694900513,-0.13759517669677734
605,371000000,imu1_frame,0.02932270281454728,-0.01028372172919564,-0.7838850967702681,0.6201278732878516,0.001953125,0.00390625,0.001953125,0.01995941996574402,-0.01692265272140503,-0.13543224334716797
605,391000000,imu1_frame,0.027383949525563337,-0.010453853378763374,-0.7839336646403124,0.6201522762205477,0.0,0.005859375,-0.00390625,-0.011788398027420044,0.003947913646697998,-0.13751220703125
605,411000000,imu1_frame,0.029376260523111986,-0.01031329355582973,-0.7838936609376891,0.6201140214794509,0.0,0.0,0.001953125,0.02042931318283081,-0.018018782138824463,-0.1353588104248047
605,431000000,imu1_frame,0.027395784157619715,-0.010467617085024401,-0.7839214240045476,0.6201669944374923,0.001953125,0.0,0.0,-0.011783510446548462,0.003588169813156128,-0.13749408721923828
605,451000000,imu1_frame,0.029397045726760055,-0.01031199117372395,-0.7838820152844606,0.6201277792956419,0.001953125,0.0,0.001953125,0.020754188299179077,-0.01825636625289917,-0.13533592224121094
605,471000000,imu1_frame,0.02753151201419271,-0.010423064527556944,-0.783906190382481,0.6201809899151154,0.005859375,0.01171875,0.0,-0.009174644947052002,0.002620995044708252,-0.13736629486083984
605,491000000,imu1_frame,0.029584714991271997,-0.010306415772744175,-0.7838628395104608,0.6201431861009216,0.001953125,0.005859375,0.001953125,0.023683160543441772,-0.020450890064239502,-0.13512134552001953
605,511000000,imu1_frame,0.02763836996323809,-0.010393800867775955,-0.7839019453754138,0.6201820937804783,0.0,0.005859375,-0.001953125,-0.0071849524974823,0.001774221658706665,-0.13726329803466797
605,531000000,imu1_frame,0.02970534887574184,-0.010355893911143806,-0.7838807396451055,0.620113968333978,0.00390625,0.005859375,-0.001953125,0.024948060512542725,-0.02265787124633789,-0.1349620819091797
605,551000000,imu1_frame,0.02773617851218107,-0.010399264421141356,-0.7839110696611397,0.620166102398194,0.001953125,0.001953125,0.0,-0.005744308233261108,0.0005116760730743408,-0.13715553283691406
605,571000000,imu1_frame,0.029777693506525642,-0.010311591457243524,-0.7838664612257122,0.6201292857272016,0.0,0.005859375,0.001953125,0.02658224105834961,-0.02286207675933838,-0.13489532470703125
605,591000000,imu1_frame,0.02782473571788769,-0.010402491138820498,-0.7839068994352921,0.6201673526380466,0.001953125,0.00390625,-0.001953125,-0.004428982734680176,-0.0006111264228820801,-0.13705730438232422
605,611000000,imu1_frame,0.029880109592821422,-0.010309717503552704,-0.78386242063761,0.6201294979984942,0.001953125,0.005859375,0.001953125,0.02817174792289734,-0.024074137210845947,-0.13477706909179688
605,633000000,imu1_frame,0.02777744880865453,-0.01042501371931266,-0.7839059939422472,0.62017023879581,0.005859375,0.005859375,-0.001953125,-0.005427628755569458,-0.00038439035415649414,-0.1371002197265625
605,651000000,imu1_frame,0.029559255400871422,-0.010283745877504998,-0.7838915841757917,0.6201084415239327,-0.001953125,0.0,-0.001953125,0.023591458797454834,-0.019780635833740234,-0.13515949249267578
605,671000000,imu1_frame,0.027557496761921426,-0.010434980193327672,-0.7839313513808817,0.6201478306684032,-0.001953125,0.0,-0.001953125,-0.008900552988052368,0.0021361708641052246,-0.13733386993408203
605,691000000,imu1_frame,0.02950748445538651,-0.010318740359078864,-0.7839041185142729,0.6200944806518421,-0.001953125,-0.00390625,0.0,0.02238398790359497,-0.0196835994720459,-0.13520526885986328
605,711000000,imu1_frame,0.02749730300202664,-0.01044522598818557,-0.7839334926624525,0.6201476232831334,0.0,-0.001953125,0.0,-0.009945899248123169,0.0027084648609161377,-0.13739395141601562
605,731000000,imu1_frame,0.029476345037094117,-0.010317599364443536,-0.7839059176394566,0.6200937062383802,0.0,-0.001953125,0.0,0.02192184329032898,-0.01928865909576416,-0.13524150848388672
605,751000000,imu1_frame,0.027465754281282156,-0.010449525277623007,-0.7839351082995119,0.6201469065783247,0.0,-0.001953125,0.0,-0.010480552911758423,0.0030251145362854004,-0.13742637634277344
605,771000000,imu1_frame,0.029447921419825628,-0.010289519612505377,-0.783919470482747,0.6200783898090991,-0.001953125,0.0,-0.001953125,0.021837621927261353,-0.018507778644561768,-0.1352853775024414
605,791000000,imu1_frame,0.027413649309653915,-0.01047452694610463,-0.783947842936685,0.6201326919875303,-0.001953125,-0.00390625,0.0,-0.011572331190109253,0.003278672695159912,-0.13747215270996094
605,811000000,imu1_frame,0.02935846842670082,-0.010297169951854321,-0.7839224912763193,0.6200786855663964,-0.001953125,-0.00390625,0.0,0.020375877618789673,-0.017541587352752686,-0.13538551330566406
605,831000000,imu1_frame,0.02732729410085567,-0.010482582746633171,-0.7839506625379924,0.620132802843333,-0.001953125,-0.00390625,0.0,-0.012991756200790405,0.004201352596282959,-0.13756084442138672
605,851000000,imu1_frame,0.029446163666860772,-0.01027001412765848,-0.7839079143598721,0.6200934059148491,0.005859375,0.01171875,0.001953125,0.022037386894226074,-0.018193960189819336,-0.13529586791992188
605,871000000,imu1_frame,0.02753118392883101,-0.010448870334190216,-0.7839195428383058,0.6201636924041893,0.001953125,0.0078125,0.001953125,-0.00948178768157959,0.00223618745803833,-0.13735675811767578
605,891000000,imu1_frame,0.029596138042556692,-0.010261179464496915,-0.7838772039066687,0.6201252341297091,0.001953125,0.0078125,0.001953125,0.024418413639068604,-0.019888639450073242,-0.13512611389160156
605,911000000,imu1_frame,0.027682837361079793,-0.010426210445828477,-0.7838893859164233,0.6201954412110362,0.001953125,0.0078125,0.001953125,-0.006906032562255859,0.0007339417934417725,-0.13720226287841797
605,931000000,imu1_frame,0.029777935066025718,-0.010269481104583148,-0.7838331475790127,0.6201720802304986,0.00390625,0.009765625,0.00390625,0.027068346738815308,-0.022237956523895264,-0.13491153717041016
605,951000000,imu1_frame,0.02783166890591322,-0.010391141130613884,-0.7838595607198915,0.6202270644368352,0.0,0.005859375,0.0,-0.0042230188846588135,-0.0005441009998321533,-0.137054443359375
605,971000000,imu1_frame,0.029876262215844177,-0.010315116816395213,-0.7838265465522158,0.6201749368050125,0.0,0.005859375,0.0,0.028017252683639526,-0.02412956953048706,-0.1347789764404297
605,991000000,imu1_frame,0.027927750479615876,-0.010365503956127422,-0.7838549739970772,0.6202289712847386,0.0,0.005859375,0.0,-0.00244295597076416,-0.0013161897659301758,-0.13696002960205078
606,11000000,imu1_frame,0.030026951008439436,-0.010399423061708135,-0.7838296582994027,0.6201623182549567,0.00390625,0.009765625,-0.001953125,0.02930837869644165,-0.027241170406341553,-0.1345682144165039
606,31000000,imu1_frame,0.028174278321011343,-0.01033826606373971,-0.7838462316877305,0.6202293248185142,0.005859375,0.013671875,0.001953125,0.0016598105430603027,-0.003886312246322632,-0.1367015838623047
606,51000000,imu1_frame,0.03027517426895073,-0.010695161916974734,-0.7837870533394313,0.6201990667132979,0.005859375,0.013671875,0.001953125,0.02949368953704834,-0.034794390201568604,-0.1341543197631836
606,71000000,imu1_frame,0.028450454117786596,-0.010328637074569935,-0.7838114159930195,0.6202608766282871,0.005859375,0.013671875,0.001953125,0.0059823691844940186,-0.007097482681274414,-0.1363992691040039
606,91000000,imu1_frame,0.026965912118062325,-0.011451435717557672,-0.783789422059327,0.6203352690856403,0.005859375,0.013671875,0.001953125,-0.030404239892959595,-0.006335318088531494,-0.1375293731689453
606,111000000,imu1_frame,0.028703510625814575,-0.010203284346528467,-0.783779885288423,0.6202911355835773,0.005859375,0.013671875,0.001953125,0.011355340480804443,-0.008255302906036377,-0.13616657257080078
606,131000000,imu1_frame,0.027087539105533517,-0.01111328164306017,-0.7837658752232146,0.6203658702990652,0.005859375,0.013671875,0.001953125,-0.02445957064628601,-0.0026403069496154785,-0.13755035400390625
606,151000000,imu1_frame,0.028967361961195544,-0.010085827467739835,-0.7837479457413191,0.6203211471258757,0.005859375,0.013671875,0.001953125,0.016797751188278198,-0.009665489196777344,-0.13591575622558594
606,171000000,imu1_frame,0.02731986550044159,-0.010933649382112219,-0.7837364594791614,0.6203960366921242,0.005859375,0.013671875,0.001953125,-0.018744051456451416,-0.002715498208999634,-0.13737964630126953
606,191000000,imu1_frame,0.029231539650570244,-0.009964954651726534,-0.783716035394218,0.620351023723194,0.005859375,0.013671875,0.001953125,0.022286534309387207,-0.011027812957763672,-0.13566207885742188
606,211000000,imu1_frame,0.027575045713038374,-0.010793923834010963,-0.7837056020638813,0.6204261739771129,0.005859375,0.013671875,0.001953125,-0.013163268566131592,-0.0036792755126953125,-0.13716602325439453
606,231000000,imu1_frame,0.029388789165946488,-0.009889443346087266,-0.7836759533202511,0.6203954369345891,0.00390625,0.001953125,0.00390625,0.02557957172393799,-0.011795639991760254,-0.1355113983154297
606,251000000,imu1_frame,0.027643821087496166,-0.010734578428135699,-0.7836684201424664,0.6204711075086923,0.001953125,0.005859375,0.001953125,-0.011419594287872314,-0.003620535135269165,-0.1371164321899414
606,271000000,imu1_frame,0.029495235568663018,-0.009833878661195892,-0.7836483982528553,0.6204260744238272,0.001953125,0.005859375,0.001953125,0.027862191200256348,-0.012247681617736816,-0.13541030883789062
606,291000000,imu1_frame,0.02773953704673344,-0.010694000108860685,-0.7836535567747354,0.6204863087936843,0.001953125,0.00390625,0.0,-0.009472399950027466,-0.004164993762969971,-0.13703060150146484
606,311000000,imu1_frame,0.02967030656714401,-0.009758291215889395,-0.7836553923639454,0.6204100858945383,0.005859375,0.013671875,-0.001953125,0.03146776556968689,-0.01320505142211914,-0.1352376937866211
606,331000000,imu1_frame,0.028009158096206705,-0.0105787511904422,-0.7836701757685627,0.6204551818599492,0.005859375,0.013671875,-0.001953125,-0.003928929567337036,-0.005656242370605469,-0.13678455352783203
606,351000000,imu1_frame,0.029902450315038905,-0.009571479236010044,-0.7836739590844677,0.6203783975149904,0.005859375,0.013671875,-0.001953125,0.03730618953704834,-0.013143837451934814,-0.13503742218017578
606,371000000,imu1_frame,0.028277468277299145,-0.010464177911734976,-0.7836867442609223,0.620424026483641,0.005859375,0.013671875,-0.001953125,0.0015863478183746338,-0.007141470909118652,-0.13653564453125
606,391000000,imu1_frame,0.029932068092582177,-0.009112441740219133,-0.7837027095498875,0.6203475620564626,0.005859375,0.013671875,-0.001953125,0.04334881901741028,-0.006458282470703125,-0.13516998291015625
606,411000000,imu1_frame,0.02852493942401359,-0.010334800260872657,-0.783704002396348,0.6203930660173188,0.005859375,0.013671875,-0.001953125,0.006962180137634277,-0.008146822452545166,-0.13631343841552734
606,431000000,imu1_frame,0.026741671307734027,-0.010819720051509616,-0.7837274861742615,0.6204345606819859,0.005859375,0.013671875,-0.001953125,-0.02623307704925537,0.0060233473777771,-0.13803958892822266
606,451000000,imu1_frame,0.028813977949232766,-0.010256306272458325,-0.7837191540942553,0.6203618704934816,0.005859375,0.013671875,-0.001953125,0.012356400489807129,-0.010434567928314209,-0.13602161407470703
606,471000000,imu1_frame,0.027028643795135948,-0.010744386440982141,-0.7837430207411578,0.6204038104445586,0.005859375,0.013671875,-0.001953125,-0.020908504724502563,0.003710120916366577,-0.1377696990966797
606,491000000,imu1_frame,0.029101128366587493,-0.010178206172557975,-0.7837342548328924,0.6203306749213934,0.005859375,0.013671875,-0.001953125,0.017717212438583374,-0.012705385684967041,-0.1357269287109375
606,511000000,imu1_frame,0.02731852077487798,-0.010666356302386217,-0.7837585115023529,0.6203728902148443,0.005859375,0.013671875,-0.001953125,-0.015506654977798462,0.001403510570526123,-0.13749408721923828
606,531000000,imu1_frame,0.029348392684622696,-0.01010833953875081,-0.783750603417224,0.6202995123017071,0.00390625,0.009765625,-0.001953125,0.02236795425415039,-0.01461869478225708,-0.13547229766845703
606,551000000,imu1_frame,0.027563302280617177,-0.010628992477628536,-0.7837875567355824,0.6203260068647486,0.0078125,0.01171875,-0.00390625,-0.011278033256530762,-0.0009732246398925781,-0.13724708557128906
606,571000000,imu1_frame,0.029614204394920598,-0.010028016645910727,-0.7837922101552413,0.6202356077170732,0.0078125,0.01171875,-0.00390625,0.027450770139694214,-0.01658231019973755,-0.13519763946533203
606,591000000,imu1_frame,0.027833876332452382,-0.010560631206642093,-0.7838291905338238,0.6202624835212247,0.0078125,0.01171875,-0.00390625,-0.00626787543296814,-0.0031807422637939453,-0.13698196411132812
606,611000000,imu1_frame,0.029718511773021955,-0.00991521830679318,-0.783814964463608,0.6202036762119668,-0.001953125,0.0,0.0,0.030435711145401,-0.016104459762573242,-0.13512039184570312
606,631000000,imu1_frame,0.027826741867930885,-0.010596812542159566,-0.7838411187618461,0.6202471124794852,0.001953125,-0.001953125,-0.001953125,-0.0068062543869018555,-0.003642737865447998,-0.13697528839111328
606,651000000,imu1_frame,0.029683666638746962,-0.009893913957882408,-0.7838423249619116,0.620171105421543,0.001953125,-0.001953125,-0.001953125,0.03018242120742798,-0.015342175960540771,-0.13516902923583984
606,671000000,imu1_frame,0.02780716904912043,-0.010619687729575715,-0.7838670585379245,0.6202148161089852,0.001953125,-0.001953125,-0.001953125,-0.0073626041412353516,-0.0037438273429870605,-0.13698768615722656
606,691000000,imu1_frame,0.029662304822804342,-0.009867149339262509,-0.7838326680032038,0.6201847592512212,0.001953125,0.0,0.00390625,0.030171334743499756,-0.014679193496704102,-0.13520526885986328
606,711000000,imu1_frame,0.02777816497820782,-0.010606311580341565,-0.7838442528015135,0.6202451668938188,-0.001953125,-0.001953125,0.0,-0.0076635777950286865,-0.003198951482772827,-0.1370248794555664
606,731000000,imu1_frame,0.0296202502977679,-0.009899588196664009,-0.7838330273648332,0.620185798078217,-0.001953125,-0.001953125,0.0,0.029133766889572144,-0.014667034149169922,-0.13524150848388672
606,751000000,imu1_frame,0.027729448100230165,-0.010617964315603424,-0.783845173338667,0.6202459840865756,-0.001953125,-0.001953125,0.0,-0.008550971746444702,-0.0027874410152435303,-0.13707256317138672
606,771000000,imu1_frame,0.029580044836388947,-0.009927375554087074,-0.7838334726296157,0.6201867100700261,-0.001953125,-0.001953125,0.0,0.02818092703819275,-0.014605939388275146,-0.13527679443359375
606,791000000,imu1_frame,0.027683831885303017,-0.01062884764233467,-0.7838460653642894,0.6202467080629,-0.001953125,-0.001953125,0.0,-0.009381502866744995,-0.0024017691612243652,-0.1371173858642578
606,811000000,imu1_frame,0.029537674906912663,-0.009952821744507515,-0.7838340125961057,0.6201876391850321,-0.001953125,-0.001953125,0.0,0.027223408222198486,-0.01448279619216919,-0.13531494140625
606,831000000,imu1_frame,0.027636632386258755,-0.01064082065327689,-0.7838469522924685,0.620247486788927,-0.001953125,-0.001953125,0.0,-0.010249525308609009,-0.002013593912124634,-0.1371631622314453
606,851000000,imu1_frame,0.029493370633505996,-0.009976240099508522,-0.7838346353537149,0.6201885843371033,-0.001953125,-0.001953125,0.0,0.026260823011398315,-0.0143052339553833,-0.13535785675048828
606,871000000,imu1_frame,0.027587825824632366,-0.01065399225541384,-0.7838478314362893,0.6202483224224937,-0.001953125,-0.001953125,0.0,-0.011156737804412842,-0.0016243159770965576,-0.13720989227294922
606,891000000,imu1_frame,0.029448657704416407,-0.009997457264244477,-0.7838353198045598,0.6201895023575791,-0.001953125,-0.001953125,0.0,0.025318771600723267,-0.014088869094848633,-0.13540077209472656
606,911000000,imu1_frame,0.027539157230649276,-0.010667864067303872,-0.7838486890495505,0.6202491629745005,-0.001953125,-0.001953125,0.0,-0.012070298194885254,-0.0012475252151489258,-0.13725662231445312
606,931000000,imu1_frame,0.029404044447993088,-0.01001663909861907,-0.7838360533081009,0.620190382580743,-0.001953125,-0.001953125,0.0,0.02440294623374939,-0.013842582702636719,-0.13544464111328125
606,951000000,imu1_frame,0.027491712461359733,-0.010682177394494069,-0.7838495154090664,0.6202499770455667,-0.001953125,-0.001953125,0.0,-0.012970507144927979,-0.0008921325206756592,-0.13730239868164062
606,971000000,imu1_frame,0.029356040702878252,-0.010035312162822323,-0.7838368549342474,0.6201913416283991,-0.001953125,-0.001953125,0.0,0.023441284894943237,-0.013547360897064209,-0.13549232482910156
606,991000000,imu1_frame,0.027442878568085985,-0.010698010401881744,-0.7838503220274877,0.6202508473567309,-0.001953125,-0.001953125,0.0,-0.013910472393035889,-0.0005432665348052979,-0.13734817504882812
607,11000000,imu1_frame,0.02930717771574593,-0.010052775105417253,-0.7838377003446176,0.6201923012787881,-0.001953125,-0.001953125,0.0,0.022481203079223633,-0.01322329044342041,-0.1355419158935547
607,31000000,imu1_frame,0.027396595278281987,-0.01071417721089481,-0.7838510802731987,0.6202516561270843,-0.001953125,-0.001953125,0.0,-0.014815449714660645,-0.00023043155670166016,-0.1373910903930664
607,51000000,imu1_frame,0.02926291394354449,-0.010067407121091306,-0.7838385406942437,0.620193091950974,-0.001953125,-0.001953125,0.0,0.021625936031341553,-0.012911498546600342,-0.13558673858642578
607,71000000,imu1_frame,0.027351759404643544,-0.010731166448047523,-0.7838517941778406,0.6202524390023106,-0.001953125,-0.001953125,0.0,-0.015708118677139282,5.221366882324219e-05,-0.13743209838867188
607,91000000,imu1_frame,0.029217199125628212,-0.010081501862738406,-0.7838394176654611,0.6201939099260133,-0.001953125,-0.001953125,0.0,0.020754992961883545,-0.012573957443237305,-0.1356334686279297
607,111000000,imu1_frame,0.027305900470811176,-0.01075005532903508,-0.7838524728233244,0.6202532748471872,-0.001953125,-0.001953125,0.0,-0.016639649868011475,0.00031834840774536133,-0.13747310638427734
607,131000000,imu1_frame,0.029168622031647648,-0.010095686393289713,-0.7838403383646686,0.6201948021044554,-0.001953125,-0.001953125,0.0,0.019839107990264893,-0.012203097343444824,-0.13568401336669922
607,151000000,imu1_frame,0.02726168777586895,-0.010770204713575286,-0.7838530928405595,0.6202540865760804,-0.001953125,-0.001953125,0.0,-0.01756119728088379,0.0005450248718261719,-0.1375112533569336
607,171000000,imu1_frame,0.029120719449813943,-0.010108839985558896,-0.7838412731044531,0.6201956575395072,-0.001953125,-0.001953125,0.0,0.018946081399917603,-0.011824607849121094,-0.13573265075683594
607,191000000,imu1_frame,0.02721828758502239,-0.010792207867079337,-0.7838536512871855,0.6202549044014407,-0.001953125,-0.001953125,0.0,-0.018492817878723145,0.0007335841655731201,-0.13754844665527344
607,211000000,imu1_frame,0.02907319915362139,-0.010121200237252083,-0.7838422207056338,0.6201964877649597,-0.001953125,-0.001953125,0.0,0.018068552017211914,-0.011438548564910889,-0.13578128814697266
607,231000000,imu1_frame,0.02717420536774062,-0.010816975333891338,-0.7838541466306488,0.6202557798337676,-0.001953125,-0.001953125,0.0,-0.01946839690208435,0.0008878111839294434,-0.13758468627929688
607,251000000,imu1_frame,0.029024774845031583,-0.010133311037382086,-0.7838431883691854,0.6201973351279771,-0.001953125,-0.001953125,0.0,0.017180144786834717,-0.011037766933441162,-0.1358318328857422
607,271000000,imu1_frame,0.027129832737953854,-0.010844931848576527,-0.7838545617671016,0.6202567094564277,-0.001953125,-0.001953125,0.0,-0.02048724889755249,0.0009969770908355713,-0.1376199722290039
607,291000000,imu1_frame,0.02897567182614621,-0.010145219144885732,-0.7838441711809124,0.6201981943511559,-0.001953125,-0.001953125,0.0,0.016283780336380005,-0.010625660419464111,-0.13588333129882812
607,311000000,imu1_frame,0.027090177470887034,-0.010874756953091114,-0.7838548569055555,0.6202575475166572,-0.001953125,-0.001953125,0.0,-0.02145645022392273,0.0010202229022979736,-0.1376495361328125
607,331000000,imu1_frame,0.028930045008744177,-0.010155456647943806,-0.7838451391262472,0.6201989334594328,-0.001953125,-0.001953125,0.0,0.015460997819900513,-0.010229945182800293,-0.13593006134033203
607,351000000,imu1_frame,0.027053112966720444,-0.010907771857388312,-0.7838550291711245,0.6202583678073617,-0.001953125,-0.001953125,0.0,-0.022424787282943726,0.0009633302688598633,-0.13767433166503906
607,371000000,imu1_frame,0.028883486087307366,-0.010165821358293756,-0.783846118113332,0.6201996964093225,-0.001953125,-0.001953125,0.0,0.014622360467910767,-0.009824872016906738,-0.13597869873046875
607,391000000,imu1_frame,0.02701573446288932,-0.010946105799911584,-0.7838550656535967,0.6202592755521221,-0.001953125,-0.001953125,0.0,-0.02346247434616089,0.0008287131786346436,-0.13769817352294922
607,411000000,imu1_frame,0.028834071533769323,-0.010177217536281919,-0.7838471161048051,0.6202005475136125,-0.001953125,-0.001953125,0.0,0.013727515935897827,-0.009401142597198486,-0.1360301971435547
607,431000000,imu1_frame,0.026982366509341906,-0.010989478139564007,-0.7838549096662963,0.6202601582076814,-0.001953125,-0.001953125,0.0,-0.024499893188476562,0.0005683004856109619,-0.13771438598632812
607,451000000,imu1_frame,0.028786053641356467,-0.010188004602257505,-0.7838481062280213,0.6202013495960211,-0.001953125,-0.001953125,0.0,0.012861400842666626,-0.008984982967376709,-0.1360797882080078
607,471000000,imu1_frame,0.026950409419243957,-0.011040715889769105,-0.7838545249919219,0.6202611237813191,-0.001953125,-0.001953125,0.0,-0.025611162185668945,0.0001703202724456787,-0.1377267837524414
607,491000000,imu1_frame,0.02873612452785416,-0.010199793346526445,-0.7838491007941254,0.620202214239073,-0.001953125,-0.001953125,0.0,0.011953771114349365,-0.00856095552444458,-0.13613128662109375
607,511000000,imu1_frame,0.026927109094462318,-0.011099256126708175,-0.783853819411266,0.6202619826360628,-0.001953125,-0.001953125,0.0,-0.026678472757339478,-0.0004445314407348633,-0.1377248764038086
607,531000000,imu1_frame,0.02869009694452075,-0.010209978334986642,-0.7838500730521891,0.6202029487641854,-0.001953125,-0.001953125,0.0,0.011125504970550537,-0.008159637451171875,-0.13617897033691406
607,551000000,imu1_frame,0.03062418500802886,-0.009819932384187456,-0.7838275723899683,0.6201451966933332,-0.001953125,-0.001953125,0.0,-0.11076417565345764,0.05253332853317261,-0.13408851623535156
607,571000000,imu1_frame,0.03259228865568282,-0.009819168031789189,-0.7837909905664294,0.6200911302109099,-0.001953125,-0.001953125,0.0,-0.04155096411705017,0.028729140758514404,-0.17462635040283203
607,591000000,imu1_frame,0.03455920604618159,-0.009820338361241921,-0.7837513287314569,0.6200347384974519,-0.001953125,-0.001953125,0.0,-0.011446148157119751,0.004915833473205566,-0.1720438003540039
607,611000000,imu1_frame,0.03652572255693031,-0.009826527636861461,-0.7837084817583972,0.6199760693496515,-0.001953125,-0.001953125,0.0,0.018586814403533936,-0.018962979316711426,-0.1693096160888672
607,633000000,imu1_frame,0.03772063260405528,-0.007998167298006956,-0.783735414763626,0.6198967517587991,-0.001953125,-0.001953125,0.0,0.020019322633743286,-0.005380570888519287,-0.1643056869506836
607,651000000,imu1_frame,0.03618951446270176,-0.007020709501873964,-0.7838009833700011,0.6199169679475337,-0.001953125,-0.001953125,0.0,0.00845104455947876,-0.010939598083496094,-0.17071151733398438
607,671000000,imu1_frame,0.037379168915364136,-0.00859881417383619,-0.7837267894054066,0.6199202994694509,-0.001953125,-0.001953125,0.0,0.007499605417251587,-0.010460376739501953,-0.16461181640625
607,691000000,imu1_frame,0.037142942360276446,-0.006612373114316003,-0.7837905347138359,0.619878275186038,-0.001953125,-0.001953125,0.0,0.028004080057144165,0.02285522222518921,-0.16554641723632812
607,711000000,imu1_frame,0.036344065095682276,-0.008455426696514093,-0.7837569767180212,0.6199456557937377,-0.001953125,-0.001953125,0.0,0.03245985507965088,0.004255890846252441,-0.1700582504272461
607,731000000,imu1_frame,0.03557892298018618,-0.010310726633525944,-0.7837191735725577,0.6200097468029078,-0.001953125,-0.001953125,0.0,-0.0017843842506408691,-0.014932572841644287,-0.17045307159423828
607,751000000,imu1_frame,0.036382367108246376,-0.00848618966111718,-0.7837555980231552,0.6199447318237351,-0.001953125,-0.001953125,0.0,0.03267297148704529,0.003321349620819092,-0.16999340057373047
607,771000000,imu1_frame,0.035379769896028555,-0.01022797326411444,-0.7837265601906317,0.620013176712215,-0.001953125,-0.001953125,0.0,-0.0038279294967651367,-0.011255145072937012,-0.1317005157470703
607,791000000,imu1_frame,0.036885428642593615,-0.008944344185063532,-0.783731484277772,0.619939048949743,-0.001953125,-0.001953125,0.0,-0.00425112247467041,-0.009785234928131104,-0.16521072387695312
607,811000000,imu1_frame,0.03843081232562279,-0.007711295414466621,-0.7837308412253668,0.6198625469402088,-0.001953125,-0.001953125,0.0,0.034376710653305054,-0.009564518928527832,-0.16333675384521484
607,831000000,imu1_frame,0.036847155442702,-0.008961338952687047,-0.783732151327383,0.6199402362451628,-0.001953125,-0.001953125,0.0,-0.005042761564254761,-0.009583234786987305,-0.16525936126708984
607,851000000,imu1_frame,0.038411991301792604,-0.007752022429355505,-0.7837303937785577,0.6198637712757478,-0.001953125,-0.001953125,0.0,0.033594489097595215,-0.009961366653442383,-0.16335296630859375
607,871000000,imu1_frame,0.0368207274237044,-0.00899084257742974,-0.7837321466250879,0.6199413852358695,-0.001953125,-0.001953125,0.0,0.03325715661048889,-0.009715855121612549,-0.16919326782226562
607,891000000,imu1_frame,0.03514308447014233,-0.010114993427448609,-0.7837361917190306,0.6200163161656619,-0.001953125,-0.001953125,0.0,-0.0060784220695495605,-0.006660044193267822,-0.13207149505615234
607,911000000,imu1_frame,0.03679720624046366,-0.009035051989684023,-0.7837317657769733,0.6199426205388271,-0.001953125,-0.001953125,0.0,0.032360196113586426,-0.01010829210281372,-0.13014888763427734
607,931000000,imu1_frame,0.03489086616350418,-0.008365112978912716,-0.7837947412454873,0.6199826255139171,-0.001953125,-0.001953125,0.0,0.011310994625091553,-0.01584470272064209,-0.16820430755615234
607,951000000,imu1_frame,0.035918667230989354,-0.010058661652046318,-0.7837227391133229,0.6199897909375841,-0.001953125,-0.001953125,0.0,0.006481379270553589,-0.01517486572265625,-0.17007923126220703
607,971000000,imu1_frame,0.03498003691591318,-0.008276372873589998,-0.7837957575484448,0.6199775069455974,-0.001953125,-0.001953125,0.0,0.013754129409790039,0.023500144481658936,-0.17201805114746094
607,991000000,imu1_frame,0.03297606965871055,-0.008007375059604317,-0.7838466009114501,0.6200265857316802,-0.001953125,-0.001953125,0.0,-0.013663679361343384,0.01280510425567627,-0.13179683685302734
608,11000000,imu1_frame,0.03462628340007682,-0.009085095225611248,-0.7837818819008316,0.6200035831724119,-0.001953125,-0.001953125,0.0,-0.001481175422668457,0.015382468700408936,-0.1722259521484375
608,31000000,imu1_frame,0.036246274735885195,-0.01020568267281754,-0.783713565989075,0.6199799174922043,-0.001953125,-0.001953125,0.0,0.009713709354400635,-0.02138841152191162,-0.13049602508544922
608,51000000,imu1_frame,0.034909441333419805,-0.008696365972005708,-0.7837877851023978,0.6199858160062592,-0.001953125,-0.001953125,0.0,0.007575720548629761,-0.02114570140838623,-0.16806888580322266
608,71000000,imu1_frame,0.036009205560899565,-0.010341434831743698,-0.7837153323023177,0.6199892497090262,-0.001953125,-0.001953125,0.0,0.004436284303665161,-0.020602047443389893,-0.13077640533447266
608,91000000,imu1_frame,0.03719966926982124,-0.008751450150074856,-0.78373644253197,0.619916756809992,-0.001953125,-0.001953125,0.0,0.002907872200012207,-0.010622739791870117,-0.16482162475585938
608,111000000,imu1_frame,0.035512797685208784,-0.009861318493475909,-0.7837418222649092,0.6199922190084478,-0.001953125,-0.001953125,0.0,0.0026683807373046875,-0.007238805294036865,-0.13165950775146484
608,131000000,imu1_frame,0.03706271449039121,-0.008628797645075686,-0.7837434805911407,0.619917781384506,-0.001953125,-0.001953125,0.0,0.002300858497619629,-0.007086038589477539,-0.12600040435791016
608,151000000,imu1_frame,0.03605906029607758,-0.006884628740533884,-0.7838177996510872,0.6199048338316107,-0.001953125,-0.001953125,0.0,0.008114874362945557,-0.007267653942108154,-0.17093276977539062
608,171000000,imu1_frame,0.03445957224461139,-0.00811759262452297,-0.7838204607195115,0.6199775221152405,-0.001953125,-0.001953125,0.0,0.007720857858657837,-0.006826162338256836,-0.1298065185546875
608,191000000,imu1_frame,0.03566520749823506,-0.009687423933167537,-0.7837489495661246,0.6199772018757167,-0.001953125,-0.001953125,0.0,0.007118195295333862,-0.006412148475646973,-0.1705760955810547
608,211000000,imu1_frame,0.035441790776910925,-0.011673228469403468,-0.7836934111958866,0.6200260094962,-0.001953125,-0.001953125,0.0,-0.02041947841644287,-0.0341486930847168,-0.1309957504272461
608,231000000,imu1_frame,0.03579493710430011,-0.009706905999427395,-0.7837461199953557,0.6199729976747721,-0.001953125,-0.001953125,0.0,0.008868604898452759,-0.008279621601104736,-0.17038726806640625
608,251000000,imu1_frame,0.03730963257275366,-0.008431511647868711,-0.7837494020856147,0.6198981978188509,-0.001953125,-0.001953125,0.0,0.008481800556182861,-0.007042407989501953,-0.12570667266845703
608,271000000,imu1_frame,0.035735597959934695,-0.009696137440705231,-0.7837481335506917,0.6199740439026328,-0.001953125,-0.001953125,0.0,0.008091539144515991,-0.007396996021270752,-0.13141250610351562
608,291000000,imu1_frame,0.036585154588258104,-0.01148858808706331,-0.7836746560450729,0.6199867516972886,-0.001953125,-0.001953125,0.0,-0.0006713569164276123,-0.04514497518539429,-0.1685314178466797
608,311000000,imu1_frame,0.0357033098385938,-0.00967826289999861,-0.7837497842647044,0.6199740966837542,-0.001953125,-0.001953125,0.0,0.007814466953277588,-0.0067321062088012695,-0.17052745819091797
608,331000000,imu1_frame,0.03676090584609841,-0.011353426808091647,-0.7836752946258828,0.6199780383966222,-0.001953125,-0.001953125,0.0,0.003661215305328369,-0.04519808292388916,-0.16833972930908203
608,351000000,imu1_frame,0.037163376070738975,-0.009396395919770812,-0.7837272987082002,0.6199210534272014,-0.001953125,-0.001953125,0.0,-0.005470573902130127,-0.0200650691986084,-0.16464614868164062
608,371000000,imu1_frame,0.03762780102921432,-0.007453959126626269,-0.7837742077802362,0.6198601280139798,-0.001953125,-0.001953125,0.0,0.025225430727005005,0.004102587699890137,-0.16460704803466797
608,391000000,imu1_frame,0.036896875270986076,-0.009323235275551523,-0.7837363344520597,0.6199266536767745,-0.001953125,-0.001953125,0.0,-0.008661240339279175,-0.015720665454864502,-0.12599658966064453
608,411000000,imu1_frame,0.03505604854332424,-0.010153245090907249,-0.7837524708525736,0.62000003992511,-0.001953125,-0.001953125,0.0,-0.00786098837852478,-0.0061833858489990234,-0.17123794555664062
608,431000000,imu1_frame,0.03685648559403088,-0.009349019020792564,-0.7837368760002421,0.6199279833257948,-0.001953125,-0.001953125,0.0,0.02947002649307251,-0.015626966953277588,-0.16901397705078125
608,451000000,imu1_frame,0.03501010047636121,-0.01016920122165148,-0.7837533533919268,0.6200012590778009,-0.001953125,-0.001953125,0.0,-0.00875788927078247,-0.005871951580047607,-0.171295166015625
608,471000000,imu1_frame,0.036815884156224096,-0.009372390361111111,-0.7837374928055045,0.6199292631773856,-0.001953125,-0.001953125,0.0,0.02856495976448059,-0.015493988990783691,-0.16906356811523438
608,491000000,imu1_frame,0.0349650884130181,-0.010185652816051523,-0.7837541999696083,0.6200024589459143,-0.001953125,-0.001953125,0.0,-0.009646475315093994,-0.005579590797424316,-0.17134952545166016
608,511000000,imu1_frame,0.03450204873740905,-0.008231354492331084,-0.7838206453530466,0.6199734263292875,-0.001953125,-0.001953125,0.0,0.006993770599365234,-0.009081125259399414,-0.1687755584716797
608,531000000,imu1_frame,0.03573515729342389,-0.009778688485982368,-0.7837490259840336,0.6199716445562549,-0.001953125,-0.001953125,0.0,0.007084876298904419,-0.00865405797958374,-0.17044353485107422
608,551000000,imu1_frame,0.03372907894439909,-0.01000144602908682,-0.7837850483840113,0.6200349330808408,-0.001953125,-0.001953125,0.0,-0.026335924863815308,0.012194693088531494,-0.1340188980102539
608,571000000,imu1_frame,0.03555777353034388,-0.009265628727464807,-0.7837678612124449,0.6199659124470628,-0.001953125,-0.001953125,0.0,-0.028463423252105713,0.0013561844825744629,-0.1669759750366211
608,591000000,imu1_frame,0.03589763182418761,-0.01122952625774071,-0.7837013117952967,0.619997993270763,-0.001953125,-0.001953125,0.0,-0.008047372102737427,-0.03285825252532959,-0.13055801391601562
608,611000000,imu1_frame,0.03573067312945145,-0.009230742168839064,-0.7837656746477987,0.619959256435945,-0.001953125,-0.001953125,0.0,0.013670742511749268,-0.00019997358322143555,-0.170654296875
608,631000000,imu1_frame,0.037509171120822346,-0.008377730972177267,-0.7837497368300406,0.6198864619625345,-0.001953125,-0.001953125,0.0,0.012192577123641968,-0.008627712726593018,-0.12543296813964844
608,651000000,imu1_frame,0.035891778721332895,-0.00958388206236169,-0.7837514617002634,0.6199625599240121,-0.001953125,-0.001953125,0.0,0.011849045753479004,-0.007562518119812012,-0.13123607635498047
608,671000000,imu1_frame,0.03515556439659406,-0.011452649528069292,-0.7837107213535128,0.6200245385033567,-0.001953125,-0.001953125,0.0,-0.02211865782737732,-0.02730351686477661,-0.17055225372314453
608,691000000,imu1_frame,0.03634701073860725,-0.009862263832437494,-0.7837340282679466,0.6199537107698964,-0.001953125,-0.001953125,0.0,-0.023623943328857422,-0.01733386516571045,-0.16564369201660156
608,711000000,imu1_frame,0.03433520200694469,-0.00964564765261938,-0.7837842481351087,0.6200083126537792,-0.001953125,-0.001953125,0.0,-0.012732982635498047,0.010317623615264893,-0.13335037231445312
608,731000000,imu1_frame,0.03628712761735943,-0.009888246407545348,-0.7837350046856213,0.6199555704908973,-0.001953125,-0.001953125,0.0,0.014206379652023315,-0.017007410526275635,-0.16962528228759766
608,751000000,imu1_frame,0.03428173733504064,-0.009638667698440734,-0.7837859540001177,0.6200092232236674,-0.001953125,-0.001953125,0.0,-0.013466477394104004,0.011071562767028809,-0.1724863052368164
608,771000000,imu1_frame,0.035394363956949386,-0.007994335636013355,-0.78380875384002,0.6199412609284664,-0.001953125,-0.001953125,0.0,-0.01552841067314148,-0.016238808631896973,-0.1715383529663086
608,791000000,imu1_frame,0.037285791511518916,-0.00854137995238124,-0.7837487546040087,0.6198989467941802,-0.001953125,-0.001953125,0.0,0.006784528493881226,-0.008436918258666992,-0.16476726531982422
608,811000000,imu1_frame,0.03920175656066272,-0.008994120924058184,-0.783687946590627,0.6198512163736786,-0.001953125,-0.001953125,0.0,0.03061312437057495,-0.03854203224182129,-0.16174793243408203
608,831000000,imu1_frame,0.0372352564377848,-0.00946579624961004,-0.7837212110404644,0.6199233805436288,-0.001953125,-0.001953125,0.0,0.033847659826278687,-0.022000372409820557,-0.16842269897460938
608,851000000,imu1_frame,0.035253921495733004,-0.009860566525440439,-0.7837539835779552,0.6199916317763138,-0.001953125,-0.001953125,0.0,-0.001279681921005249,-0.004092216491699219,-0.1320180892944336
608,871000000,imu1_frame,0.03718920287491951,-0.009500606986324918,-0.7837216231949037,0.6199250914369935,-0.001953125,-0.001953125,0.0,0.032719582319259644,-0.021975994110107422,-0.12941455841064453
608,891000000,imu1_frame,0.0372339723429139,-0.007500404679165459,-0.7837802798841937,0.6198756714841055,-0.001953125,-0.001953125,0.0,0.01863124966621399,0.008150458335876465,-0.12610721588134766
608,911000000,imu1_frame,0.037187777131490476,-0.009498252591520753,-0.7837220131447218,0.6199247200605176,-0.001953125,-0.001953125,0.0,-0.006335616111755371,-0.021922767162322998,-0.12551021575927734
608,931000000,imu1_frame,0.03755220825483442,-0.007535384068928705,-0.7837720854594425,0.6198664111699194,-0.001953125,-0.001953125,0.0,0.02307829260826111,0.0037665963172912598,-0.16469383239746094
608,951000000,imu1_frame,0.037184246803192544,-0.009504707953914868,-0.7837221838767626,0.6199246170429336,-0.001953125,-0.001953125,0.0,-0.0064677894115448,-0.021978914737701416,-0.16457557678222656
608,971000000,imu1_frame,0.03519631726986622,-0.009864332995184416,-0.7837560583354427,0.6199922218928953,-0.001953125,-0.001953125,0.0,-0.0022066235542297363,-0.003452479839324951,-0.1320962905883789
608,991000000,imu1_frame,0.03715955330386389,-0.009738918401258977,-0.7837162387555857,0.6199299784471055,-0.001953125,-0.001953125,0.0,0.02937266230583191,-0.025270044803619385,-0.16842937469482422
609,11000000,imu1_frame,0.03514060798488477,-0.009865174316827577,-0.7837576131474662,0.6199934030613051,-0.001953125,-0.001953125,0.0,-0.0030694305896759033,-0.0027914047241210938,-0.1712350845336914
609,31000000,imu1_frame,0.034412039971277196,-0.007989297760251523,-0.783827296505978,0.6199731864189311,-0.001953125,-0.001953125,0.0,0.008552581071853638,-0.004282474517822266,-0.16897296905517578
609,51000000,imu1_frame,0.03634226827975142,-0.008364545558371158,-0.7837729872439494,0.6199267524317534,-0.001953125,-0.001953125,0.0,-0.005514860153198242,0.005681395530700684,-0.1661844253540039
609,71000000,imu1_frame,0.03827558644436172,-0.008736423010383942,-0.7837156664623051,0.619877736764976,-0.001953125,-0.001953125,0.0,0.019563734531402588,-0.023397088050842285,-0.1632404327392578
609,91000000,imu1_frame,0.036420880505805185,-0.009538203614776997,-0.7837353184888548,0.6199528148884866,-0.001953125,-0.001953125,0.0,0.020498842000961304,-0.013264715671539307,-0.16956806182861328
609,111000000,imu1_frame,0.03472916800581631,-0.008436517984704841,-0.7838053944547598,0.6199772686780832,-0.001953125,-0.001953125,0.0,0.007976412773132324,-0.014977216720581055,-0.12933921813964844
609,131000000,imu1_frame,0.03592069704273285,-0.010016833321364577,-0.7837332356319711,0.6199770817861072,-0.001953125,-0.001953125,0.0,0.0070292651653289795,-0.014551758766174316,-0.17009258270263672
609,151000000,imu1_frame,0.03730731528589102,-0.008599231647553978,-0.7837441794402521,0.6199026364153947,-0.001953125,-0.001953125,0.0,0.0064095258712768555,-0.009586095809936523,-0.1647167205810547
609,171000000,imu1_frame,0.035731892056033804,-0.0098568763836557,-0.7837428319584071,0.619978424811597,-0.001953125,-0.001953125,0.0,0.006082206964492798,-0.00981670618057251,-0.17041873931884766
609,191000000,imu1_frame,0.03727522274676799,-0.008615943706750919,-0.7837447768580305,0.6199035796242647,-0.001953125,-0.001953125,0.0,0.005715519189834595,-0.009454071521759033,-0.16475868225097656
609,211000000,imu1_frame,0.03570467848611696,-0.009879489912670751,-0.783743089637424,0.6199793069602026,-0.001953125,-0.001953125,0.0,0.00539126992225647,-0.009833931922912598,-0.17044830322265625
609,231000000,imu1_frame,0.03724758567702338,-0.008637812510354203,-0.7837451224806578,0.6199044995352491,-0.001953125,-0.001953125,0.0,0.005027323961257935,-0.009454965591430664,-0.16479110717773438
609,251000000,imu1_frame,0.036807907317178735,-0.006677772289638437,-0.7838127911791669,0.619869416651686,-0.001953125,-0.001953125,0.0,0.022095799446105957,0.025916337966918945,-0.1269521713256836
609,271000000,imu1_frame,0.03617099655631075,-0.008578554110469977,-0.783773661621288,0.6199329921582297,-0.001953125,-0.001953125,0.0,0.02833014726638794,0.0044730305671691895,-0.17026233673095703
609,291000000,imu1_frame,0.0381372162943667,-0.00854840324171985,-0.7837278220824595,0.6198735180899554,-0.001953125,-0.001953125,0.0,0.019731968641281128,-0.018839001655578613,-0.16350936889648438
609,311000000,imu1_frame,0.03635814415990251,-0.009503565881103923,-0.7837411498855771,0.6199496572826092,-0.001953125,-0.001953125,0.0,0.01996225118637085,-0.011972665786743164,-0.16967010498046875
609,331000000,imu1_frame,0.03457198326221462,-0.010544489674441966,-0.7838966496998161,0.6198383936964751,0.0,-0.0078125,-0.0234375,-0.019887804985046387,-0.006231129169464111,-0.1717386245727539
609,351000000,imu1_frame,0.03614699766480715,-0.009433807999732252,-0.7840437005290614,0.6195804011483418,0.0,-0.0078125,-0.0234375,-0.021208345890045166,-0.008139312267303467,-0.16608905792236328
609,371000000,imu1_frame,0.03772568724823369,-0.00833131871511397,-0.7841874236879345,0.6193201483722257,0.0,-0.0078125,-0.0234375,0.016487032175064087,-0.010193884372711182,-0.16419219970703125
609,391000000,imu1_frame,0.036045897289838355,-0.009540870272111125,-0.7843384494950337,0.6192114838459859,0.0,-0.0078125,-0.0234375,-0.023777514696121216,-0.008351385593414307,-0.16619205474853516
609,411000000,imu1_frame,0.03474095807950723,-0.011142795396911992,-0.784466000053882,0.6190977295241222,0.0,-0.0078125,-0.0234375,-0.023999810218811035,-0.017067253589630127,-0.17125606536865234
609,431000000,imu1_frame,0.0361208011656909,-0.009792699950053756,-0.7846250977280076,0.6188399201458735,0.0,-0.0078125,-0.0234375,-0.02540406584739685,-0.012911081314086914,-0.16599082946777344
609,451000000,imu1_frame,0.03751261590166407,-0.008457580332705914,-0.7847804383423962,0.6185797738192275,0.0,-0.0078125,-0.0234375,0.012249648571014404,-0.009105026721954346,-0.16446399688720703
609,471000000,imu1_frame,0.035625014359680164,-0.009296706863388017,-0.7849471022529165,0.6184678457754441,0.0,-0.0078125,-0.0234375,-0.026715904474258423,0.0008933544158935547,-0.1278085708618164
609,491000000,imu1_frame,0.036068651120191864,-0.011269924756784835,-0.7850252451541088,0.618310120953133,0.0,-0.0078125,-0.0234375,-0.004611968994140625,-0.03465116024017334,-0.16936302185058594
609,511000000,imu1_frame,0.036890135568786064,-0.0095141977460827,-0.7852086554419712,0.6180582216571322,0.0,-0.0078125,-0.0234375,-0.00966942310333252,-0.017490923404693604,-0.16499805450439453
609,531000000,imu1_frame,0.03777791008108843,-0.00779423768199323,-0.7853863289850336,0.6178028760148938,0.0,-0.0078125,-0.0234375,0.02490594983100891,-0.0016557574272155762,-0.16428470611572266
609,551000000,imu1_frame,0.03683719333719457,-0.009627042801520743,-0.7855014252119674,0.6176875036973826,0.0,-0.0078125,-0.0234375,-0.011564671993255615,-0.01837158203125,-0.16503238677978516
609,571000000,imu1_frame,0.037723164411349305,-0.007902426271234848,-0.7856793558870218,0.6174321535673183,0.0,-0.0078125,-0.0234375,0.023032307624816895,-0.0024274587631225586,-0.16433238983154297
609,591000000,imu1_frame,0.03679311179273547,-0.009742831271107878,-0.7857937123041656,0.6173164390056918,0.0,-0.0078125,-0.0234375,-0.013358592987060547,-0.019406020641326904,-0.16505146026611328
609,611000000,imu1_frame,0.03742641938418176,-0.007906155547969558,-0.7859809304471971,0.6170662304889881,0.0,-0.0078125,-0.0234375,0.018707215785980225,0.001317739486694336,-0.12570476531982422
609,635000000,imu1_frame,0.036789460775173345,-0.010171813277234236,-0.7859405057368366,0.6171228331804378,0.001953125,0.005859375,-0.001953125,-0.018447011709213257,-0.025841176509857178,-0.12582778930664062
609,651000000,imu1_frame,0.03739856007598833,-0.008658114824897891,-0.7859804697555783,0.6170584136973758,0.001953125,0.005859375,-0.001953125,0.009210258722305298,-0.009893476963043213,-0.1645641326904297
609,671000000,imu1_frame,0.03583261270581629,-0.009797187343411957,-0.7859930763060607,0.617118240684691,0.001953125,0.005859375,-0.001953125,-0.028589874505996704,-0.008550584316253662,-0.16639423370361328
609,691000000,imu1_frame,0.037506599701783064,-0.008600194403875185,-0.7860004758680683,0.6170271821971832,0.001953125,0.005859375,-0.001953125,0.011588364839553833,-0.010286808013916016,-0.16442584991455078
609,711000000,imu1_frame,0.035856546599702555,-0.009608712382973776,-0.7860192005070815,0.6170865394306484,0.001953125,0.005859375,-0.001953125,-0.025924384593963623,-0.005926191806793213,-0.16643238067626953
609,731000000,imu1_frame,0.03761961244118793,-0.008544263521223313,-0.7860202960530439,0.6169958302236249,0.001953125,0.005859375,-0.001953125,0.01401907205581665,-0.010770738124847412,-0.1642780303955078
609,751000000,imu1_frame,0.035939122244387875,-0.009501128107237865,-0.786041490576103,0.6170550082042048,0.001953125,0.005859375,-0.001953125,-0.02333652973175049,-0.0052512288093566895,-0.16635704040527344
609,771000000,imu1_frame,0.03765850264862054,-0.008372012598039468,-0.7860452236802201,0.6169640612813964,0.001953125,0.005859375,-0.001953125,0.016717642545700073,-0.00857400894165039,-0.1252155303955078
609,791000000,imu1_frame,0.036026574811865206,-0.009416619398715865,-0.7860629548964765,0.6170238602565097,0.001953125,0.005859375,-0.001953125,-0.02095264196395874,-0.004989564418792725,-0.12720298767089844
609,811000000,imu1_frame,0.03783887595046745,-0.008442311968544046,-0.7860597770951047,0.6169335245134805,0.001953125,0.005859375,-0.001953125,0.01865708827972412,-0.011809289455413818,-0.1639881134033203
609,831000000,imu1_frame,0.038660048588019226,-0.010267702973307008,-0.7859936641496064,0.6169391662356183,0.001953125,0.005859375,-0.001953125,0.009210586547851562,-0.01068812608718872,-0.1659994125366211
609,851000000,imu1_frame,0.03743206115818759,-0.008718516184619187,-0.7860815375709016,0.6169267740689778,0.001953125,0.005859375,-0.001953125,0.009093135595321655,-0.011146783828735352,-0.16449451446533203
609,871000000,imu1_frame,0.035526369292297515,-0.008369383544907337,-0.7861468662723609,0.6169610483281194,0.001953125,0.005859375,-0.001953125,-0.015938937664031982,0.017164111137390137,-0.1673288345336914
609,891000000,imu1_frame,0.037547308906782366,-0.008709766086469518,-0.7860999473290823,0.6168964356987257,0.001953125,0.005859375,-0.001953125,0.010987460613250732,-0.012382149696350098,-0.16432857513427734
609,911000000,imu1_frame,0.039564277006662714,-0.009054270166726058,-0.786049613926581,0.6168295490835056,0.001953125,0.005859375,-0.001953125,0.0026425719261169434,-0.002874314785003662,-0.16507434844970703
609,931000000,imu1_frame,0.03868312629638716,-0.0072707361488637745,-0.7861372464684956,0.6167973588227522,0.001953125,0.005859375,-0.001953125,0.010679781436920166,-0.003897547721862793,-0.1630849838256836
609,951000000,imu1_frame,0.03932187630972844,-0.009160705268890856,-0.7860736208303861,0.6168128842339996,0.001953125,0.005859375,-0.001953125,-0.002343475818634033,-0.04064136743545532,-0.16150474548339844
609,971000000,imu1_frame,0.04137353565691594,-0.009186669206126073,-0.7860295919025844,0.6167343968918872,0.001953125,0.005859375,-0.001953125,0.02884650230407715,-0.02664285898208618,-0.16216564178466797
609,991000000,imu1_frame,0.03945182551058711,-0.008929719234301426,-0.7860985403963319,0.6167762141693172,0.001953125,0.005859375,-0.001953125,0.03762078285217285,-0.038635849952697754,-0.16138553619384766
610,11000000,imu1_frame,0.03761151894695104,-0.00867986581894337,-0.7861967037928176,0.6167696300217584,0.005859375,0.013671875,-0.0078125,0.012428075075149536,-0.012621045112609863,-0.1642446517944336
610,31000000,imu1_frame,0.039706987237815516,-0.00904225300373194,-0.7861779903462168,0.61665692270524,0.005859375,0.013671875,-0.0078125,0.005110383033752441,-0.0042991042137146,-0.1648578643798828
610,51000000,imu1_frame,0.04168319251896737,-0.00978844574041824,-0.7861464679635284,0.6165552924919893,0.005859375,0.013671875,-0.0078125,0.026478886604309082,-0.03949826955795288,-0.1614389419555664
610,71000000,imu1_frame,0.04023619844971355,-0.008542948361379756,-0.7862698323282862,0.6165126252868296,0.005859375,0.013671875,-0.0078125,0.019358932971954346,-0.04197055101394653,-0.16029644012451172
610,91000000,imu1_frame,0.03979429431658866,-0.010414014762489985,-0.7862656369454366,0.6165178915450534,0.005859375,0.013671875,-0.0078125,-0.009986013174057007,-0.026342332363128662,-0.1642007827758789
610,111000000,imu1_frame,0.03827802339206143,-0.009271850142761684,-0.7863837852196562,0.6164814417837186,0.005859375,0.013671875,-0.0078125,0.01572611927986145,-0.029572486877441406,-0.12398529052734375
610,131000000,imu1_frame,0.03669756393930392,-0.008226092412551858,-0.7864979616495766,0.6164467345404646,0.005859375,0.013671875,-0.0078125,0.004121273756027222,0.005554318428039551,-0.16572189331054688
610,151000000,imu1_frame,0.03873036997077461,-0.007536990895964127,-0.7865126799458139,0.6163123854788372,0.005859375,0.013671875,-0.0078125,0.008550703525543213,-0.008246004581451416,-0.12387466430664062
610,171000000,imu1_frame,0.037355369263166974,-0.00879529844300851,-0.786554227673004,0.6163275639156788,0.005859375,0.013671875,-0.0078125,0.007436960935592651,-0.011045515537261963,-0.1645803451538086
610,191000000,imu1_frame,0.0369026050269102,-0.006847620050014561,-0.7866666762558581,0.61623603295364,0.005859375,0.013671875,-0.0078125,0.02403375506401062,0.02440541982650757,-0.1658334732055664
610,211000000,imu1_frame,0.03749287547965291,-0.008753768528989842,-0.7866418718170346,0.6162079367624215,0.005859375,0.013671875,-0.0078125,0.010135561227798462,-0.011990249156951904,-0.16439342498779297
610,231000000,imu1_frame,0.035655874885597884,-0.00851035634554549,-0.7867369222414232,0.6161990324587563,0.005859375,0.013671875,-0.0078125,-0.015111029148101807,0.013869106769561768,-0.16710186004638672
610,251000000,imu1_frame,0.03777639981369385,-0.008740242249312705,-0.7867249785161482,0.6160847019374085,0.005859375,0.013671875,-0.0078125,0.014740407466888428,-0.015120267868041992,-0.16398048400878906
610,271000000,imu1_frame,0.03592499360924867,-0.0087115928628605,-0.7868143504357967,0.6160817161158593,0.005859375,0.013671875,-0.0078125,-0.013321876525878906,0.007602035999298096,-0.1666574478149414
610,291000000,imu1_frame,0.03806441482542168,-0.00871900263444159,-0.7868080930025746,0.6159611222331414,0.005859375,0.013671875,-0.0078125,0.019508272409439087,-0.018184423446655273,-0.1635608673095703
610,311000000,imu1_frame,0.03928655545787854,-0.00699503371210537,-0.7868732775217778,0.6158230924427539,0.005859375,0.013671875,-0.0078125,0.02397465705871582,-0.00628817081451416,-0.16224288940429688
610,331000000,imu1_frame,0.039026715466437746,-0.00891300921255683,-0.7868666240961191,0.6158233428754185,0.005859375,0.013671875,-0.0078125,0.03204140067100525,0.006402492523193359,-0.16594982147216797
610,351000000,imu1_frame,0.03718565617972485,-0.008685465076820855,-0.78696347386171,0.6158167588482732,0.005859375,0.013671875,-0.0078125,0.006535053253173828,-0.007010459899902344,-0.16486454010009766
610,371000000,imu1_frame,0.039288241829104814,-0.00902040877589181,-0.7869460991351963,0.6157035839877752,0.005859375,0.013671875,-0.0078125,-0.00030344724655151367,0.0016808509826660156,-0.1655120849609375
610,391000000,imu1_frame,0.041239329762157356,-0.00949452227163692,-0.7868758451358773,0.6156586522329565,-0.00390625,0.0078125,0.0,0.023954927921295166,-0.029044747352600098,-0.16226959228515625
610,411000000,imu1_frame,0.039684945125352776,-0.008217275659248995,-0.7869532723892521,0.6156802161731244,-0.00390625,0.0078125,0.0,0.015475094318389893,-0.02978605031967163,-0.16126441955566406
610,431000000,imu1_frame,0.038038789860296525,-0.0070664837378634935,-0.7870262112645945,0.6157051713734787,-0.00390625,0.0078125,0.0,0.004052996635437012,0.0076988935470581055,-0.1641092300415039
610,451000000,imu1_frame,0.039376998730850744,-0.008503191576109218,-0.7869446719172251,0.6157070984202325,-0.00390625,0.0078125,0.0,0.007285177707672119,0.008566081523895264,-0.12649059295654297
610,471000000,imu1_frame,0.03826705735918846,-0.006788205250016888,-0.7870205738487097,0.6157013634298693,-0.00390625,0.0078125,0.0,0.01091015338897705,0.009236276149749756,-0.16384410858154297
610,491000000,imu1_frame,0.03932056846163771,-0.008427237544448364,-0.786940228885328,0.6157174276607172,-0.00390625,0.0078125,0.0,0.007326185703277588,-0.028656184673309326,-0.1617584228515625
610,511000000,imu1_frame,0.04067638043625644,-0.009849009460539059,-0.7868555968558529,0.6157164110074302,-0.00390625,0.0078125,0.0,0.011002898216247559,-0.027764618396759033,-0.16303634643554688
610,531000000,imu1_frame,0.039411861902654714,-0.00825841752454101,-0.7869346725788738,0.6157209796446252,-0.00390625,0.0078125,0.0,0.010758161544799805,-0.02716064453125,-0.16167354583740234
610,551000000,imu1_frame,0.040517347201201204,-0.009866789255678356,-0.7868506808608177,0.6157328942605137,-0.00390625,0.0078125,0.0,0.00833594799041748,-0.026136338710784912,-0.1632823944091797
610,571000000,imu1_frame,0.03933811877076169,-0.008208081505569129,-0.7869294867092899,0.6157329963198568,-0.00390625,0.0078125,0.0,0.010223746299743652,0.01355522871017456,-0.1657094955444336
610,591000000,imu1_frame,0.03784633788084991,-0.006850551842280433,-0.7870040967350574,0.6157477376090807,-0.00390625,0.0078125,0.0,0.003669053316116333,0.013308525085449219,-0.12539100646972656
610,611000000,imu1_frame,0.039793360558787176,-0.007342087403989418,-0.7869345301676964,0.6157082323939946,-0.00390625,0.0078125,0.0,-0.01140660047531128,0.021416544914245605,-0.1652679443359375
610,631000000,imu1_frame,0.04084484579269017,-0.005539228643318599,-0.7869550606121664,0.6156319907989758,-0.00390625,0.0078125,0.0,0.02649068832397461,-0.002510547637939453,-0.16015911102294922
610,651000000,imu1_frame,0.04045080039006977,-0.007411921634766844,-0.7869053813664526,0.615701808460882,-0.00390625,0.0078125,0.0,0.03690671920776367,0.012438595294952393,-0.1642169952392578
610,671000000,imu1_frame,0.04003583416144168,-0.009281491974777553,-0.7868534268682429,0.6157699818239133,-0.00390625,0.0078125,0.0,0.007970333099365234,-0.01136869192123413,-0.1642599105834961
610,691000000,imu1_frame,0.03963107532443368,-0.007356464835528157,-0.7869641411074064,0.6156806809579418,-0.00390625,-0.013671875,-0.005859375,0.025014400482177734,0.023164570331573486,-0.16551589965820312
610,711000000,imu1_frame,0.03759647658911479,-0.008010898390909408,-0.7870367063425433,0.6157073601351019,-0.00390625,-0.013671875,-0.005859375,-0.0141105055809021,-0.001510024070739746,-0.16448497772216797
610,731000000,imu1_frame,0.03936293338712711,-0.007448986525399194,-0.7870480966935193,0.6155894456259091,-0.00390625,-0.013671875,-0.005859375,0.01985311508178711,-0.014035165309906006,-0.16199684143066406
610,751000000,imu1_frame,0.037555171552639904,-0.008582687956093434,-0.7870997391094171,0.6156215942045793,-0.00390625,-0.013671875,-0.005859375,0.013589262962341309,-0.009757041931152344,-0.16436004638671875
610,771000000,imu1_frame,0.036013092910080986,-0.009819092256246121,-0.7871219916511512,0.6156668034135333,0.0,0.001953125,-0.00390625,-0.02500814199447632,-0.010258972644805908,-0.16613292694091797
610,791000000,imu1_frame,0.037997706099356564,-0.009491682626148534,-0.7871091680073936,0.6155690375017411,0.0,0.001953125,-0.00390625,-0.025680899620056152,0.010032951831817627,-0.12822914123535156
610,811000000,imu1_frame,0.038778325650625695,-0.007630394509348455,-0.7871695368160397,0.6154690397153925,0.0,0.001953125,-0.00390625,0.008786618709564209,-0.009718716144561768,-0.16283607482910156
610,831000000,imu1_frame,0.03727038569431877,-0.008878752160962348,-0.7871929749748126,0.6155154801144852,0.0,0.001953125,-0.00390625,-0.029424667358398438,-0.010824501514434814,-0.16467571258544922
610,851000000,imu1_frame,0.0388244173690055,-0.007592967900037231,-0.787216036303241,0.6154071202394725,0.0,0.001953125,-0.00390625,0.009990513324737549,-0.009657084941864014,-0.16277790069580078
610,871000000,imu1_frame,0.03732505520357821,-0.00887625913478339,-0.7872382733656089,0.6154542657469819,0.0,0.001953125,-0.00390625,-0.02851003408432007,-0.011406779289245605,-0.1645965576171875
610,891000000,imu1_frame,0.038625007576616965,-0.010388895544724991,-0.7871834586874523,0.6154204920279523,0.0,0.001953125,-0.00390625,0.008417278528213501,-0.011222302913665771,-0.16600322723388672
610,911000000,imu1_frame,0.04019198821426924,-0.009113785566606527,-0.7872081919731267,0.6153087074683982,0.0,0.001953125,-0.00390625,0.012751102447509766,-0.010369062423706055,-0.16407489776611328
610,931000000,imu1_frame,0.03830090559261854,-0.009688400786184657,-0.7872608274650574,0.6153532035018787,0.0,0.001953125,-0.00390625,-0.023227781057357788,0.003489851951599121,-0.1277027130126953
610,951000000,imu1_frame,0.03875820779309825,-0.007722539118182041,-0.7873328074353755,0.6152602815509589,0.0,0.001953125,-0.00390625,0.007523715496063232,-0.010760962963104248,-0.1628398895263672
610,971000000,imu1_frame,0.03995928611570074,-0.009316186782551104,-0.7872757483407584,0.6152343945127376,0.0,0.001953125,-0.00390625,0.0068021416664123535,-0.010638833045959473,-0.1253042221069336
610,991000000,imu1_frame,0.04143674161785337,-0.007936949563179481,-0.7873033773823512,0.6151206330778296,0.0,0.001953125,-0.00390625,0.04616576433181763,-0.007094144821166992,-0.16248130798339844
611,11000000,imu1_frame,0.0394699555238604,-0.007715421973476402,-0.7873867561661465,0.6151460729687455,0.0,0.001953125,-0.00390625,0.018622636795043945,-0.019131958484649658,-0.16175365447998047
611,31000000,imu1_frame,0.04015719172118005,-0.009582573777287664,-0.787333557322522,0.6151434334744491,0.0,0.001953125,-0.00390625,0.006706714630126953,-0.017057836055755615,-0.16395854949951172
611,51000000,imu1_frame,0.03839496536752126,-0.010479710724260039,-0.7873716552552019,0.6151925542448039,0.0,0.001953125,-0.00390625,0.0039736926555633545,-0.00972074270248413,-0.16631221771240234
611,71000000,imu1_frame,0.040301814240281765,-0.009563197951787297,-0.7873616846665517,0.6150982738822524,0.001953125,0.01171875,-0.001953125,0.04435229301452637,-0.018468260765075684,-0.16373825073242188
611,91000000,imu1_frame,0.04157851465049008,-0.00788872622620687,-0.7873890311420495,0.6150020396349688,0.001953125,0.01171875,-0.001953125,0.009952843189239502,-0.00797349214553833,-0.12320423126220703
611,111000000,imu1_frame,0.03969566131833279,-0.0076712850196882015,-0.7874552095103128,0.6150444690213192,0.001953125,0.01171875,-0.001953125,0.02269566059112549,-0.021098196506500244,-0.16141700744628906
611,131000000,imu1_frame,0.03780684673515746,-0.007594819151217041,-0.7875145781753008,0.6150884084612412,0.001953125,0.01171875,-0.001953125,-0.005421549081802368,0.00274580717086792,-0.16430091857910156
611,151000000,imu1_frame,0.039852643182320506,-0.007715466834786015,-0.7874684442371952,0.615016819065589,0.001953125,0.005859375,-0.001953125,0.02459430694580078,-0.02364480495452881,-0.16116046905517578
611,171000000,imu1_frame,0.03791811303246124,-0.007599428286481722,-0.7875325587542326,0.615058480386855,0.001953125,0.005859375,-0.001953125,-0.0037462711334228516,0.0013564229011535645,-0.16413593292236328
611,191000000,imu1_frame,0.03950314185884178,-0.008860552279924121,-0.7874644249988355,0.6150290820423276,0.001953125,0.005859375,-0.001953125,0.0054433345794677734,0.0019844770431518555,-0.1261749267578125
611,211000000,imu1_frame,0.03850584517048247,-0.007143076601777215,-0.7875526487715813,0.6150017087433454,0.001953125,0.005859375,-0.001953125,0.01081085205078125,0.0013554096221923828,-0.1633892059326172
611,231000000,imu1_frame,0.04042044823190608,-0.0063908216514404325,-0.7875338305074869,0.6149112216975359,0.001953125,0.005859375,-0.001953125,0.0102614164352417,-0.010005712509155273,-0.16063404083251953
611,251000000,imu1_frame,0.03889326076261627,-0.007586241408934215,-0.7875497457212792,0.6149757403531337,0.001953125,0.005859375,-0.001953125,0.011448919773101807,-0.010103881359100342,-0.1626749038696289
611,271000000,imu1_frame,0.04006217113216044,-0.009225014718933574,-0.7874791405551855,0.6149687185036969,0.001953125,0.005859375,-0.001953125,0.009689271450042725,-0.010301828384399414,-0.16423892974853516
611,291000000,imu1_frame,0.03875158860990002,-0.010654459944452901,-0.787476257687226,0.6150332840118676,0.001953125,0.005859375,-0.001953125,-0.02768266201019287,-0.016600072383880615,-0.16570281982421875
611,311000000,imu1_frame,0.04015987418567464,-0.009159729728852904,-0.7874992752484148,0.6149375377547759,0.001953125,0.005859375,-0.001953125,0.011999547481536865,-0.010450661182403564,-0.1641092300415039
611,331000000,imu1_frame,0.03885061837833789,-0.007683610272194573,-0.7875893213550134,0.6149265423384774,0.001953125,0.005859375,-0.001953125,0.00965958833694458,-0.011058926582336426,-0.16271114349365234
611,351000000,imu1_frame,0.04009092871162051,-0.009269786762018402,-0.7875184627218701,0.6149158148564802,0.001953125,0.005859375,-0.001953125,0.009634017944335938,-0.01130223274230957,-0.16417694091796875
611,371000000,imu1_frame,0.03811577867882766,-0.009378001880880144,-0.7875412783178786,0.6150105490492586,0.001953125,0.0,0.00390625,-0.022071123123168945,0.010696887969970703,-0.1671581268310547
611,391000000,imu1_frame,0.036520573035789566,-0.00821429366483977,-0.7875910049089979,0.615060307702554,0.001953125,0.0,0.00390625,0.0025453269481658936,0.008682727813720703,-0.16597938537597656
611,411000000,imu1_frame,0.03845670933971954,-0.007696530721043978,-0.7875350293028294,0.6150206683865282,0.001953125,0.0,0.00390625,0.003384113311767578,-0.006584584712982178,-0.12423992156982422
611,431000000,imu1_frame,0.0369273058651658,-0.008983503044014256,-0.7875109157406328,0.6151278146401353,0.001953125,0.0,0.00390625,-0.00051078200340271,-0.008083939552307129,-0.12607383728027344
611,451000000,imu1_frame,0.03841625372697141,-0.007591705969555235,-0.7875262353339464,0.6150357600260314,0.0,0.00390625,-0.001953125,0.039169251918792725,-0.004494905471801758,-0.12433242797851562
611,471000000,imu1_frame,0.04039204719858639,-0.008004830693712366,-0.7874723162050711,0.6149729721047036,0.0,0.00390625,-0.001953125,0.029428601264953613,-0.034549713134765625,-0.12116241455078125
611,491000000,imu1_frame,0.03849227091133001,-0.008474397248260095,-0.7875178103201328,0.6150302660031868,0.0,0.00390625,-0.001953125,0.029722750186920166,-0.01899200677871704,-0.16300296783447266
611,511000000,imu1_frame,0.03659848142439127,-0.008971122844506095,-0.7875593440861155,0.6150856441626521,0.0,0.00390625,-0.001953125,-0.005381524562835693,-0.003917992115020752,-0.16561317443847656
611,531000000,imu1_frame,0.03868567314411959,-0.008397814157304874,-0.7875439072278545,0.6149857637368937,0.001953125,0.017578125,-0.00390625,0.03364679217338562,-0.020107924938201904,-0.1627368927001953
611,551000000,imu1_frame,0.03691946124354284,-0.008859286894204515,-0.7875913099085011,0.6150271497859456,0.001953125,0.017578125,-0.00390625,0.0009377002716064453,-0.006018996238708496,-0.1651906967163086
611,571000000,imu1_frame,0.03903885719813898,-0.008447040475874534,-0.787569699691211,0.614929738477623,0.001953125,0.017578125,-0.00390625,0.03852105140686035,-0.025072991847991943,-0.1621837615966797
611,591000000,imu1_frame,0.03851066916499362,-0.006474490626796146,-0.7876601006292668,0.6148711858660165,0.001953125,0.017578125,-0.00390625,0.01901984214782715,0.011674821376800537,-0.1635599136352539
611,611000000,imu1_frame,0.037749771582978646,-0.008159016722783389,-0.7876486676513207,0.614912970702887,0.001953125,0.017578125,-0.00390625,0.022199362516403198,-0.005144655704498291,-0.16421222686767578
611,636000000,imu1_frame,0.03654472436682337,-0.010113512009047903,-0.7876411036174327,0.6149664152521731,0.001953125,0.017578125,-0.00390625,-0.01986241340637207,-0.020789027214050293,-0.16526412963867188
611,651000000,imu1_frame,0.037419231208944706,-0.008751949465301914,-0.7876752664092165,0.6148909490336137,0.001953125,0.017578125,-0.00390625,0.010006338357925415,-0.010288894176483154,-0.16450214385986328
611,671000000,imu1_frame,0.0356957562452822,-0.009585516648165055,-0.7877241244554218,0.6149183967061028,0.001953125,0.0078125,-0.005859375,-0.026519209146499634,-0.0024369359016418457,-0.16666603088378906
611,691000000,imu1_frame,0.03776160446180949,-0.009410078573495313,-0.7877153051479776,0.6148090026059629,0.001953125,0.0078125,-0.005859375,-0.027744442224502563,0.014579057693481445,-0.16767120361328125
611,711000000,imu1_frame,0.0398275046806774,-0.009262452800170864,-0.7877021563335003,0.6146977222558981,0.001953125,0.0078125,-0.005859375,0.005849480628967285,-0.00788646936416626,-0.16459178924560547
611,731000000,imu1_frame,0.03878236154428636,-0.007576153894153563,-0.7878146784886272,0.6146434435370489,0.001953125,0.0078125,-0.005859375,0.010113239288330078,-0.008403003215789795,-0.16284656524658203
611,751000000,imu1_frame,0.038249665688311056,-0.009521860114925899,-0.7878175619446852,0.614646065916163,-0.001953125,-0.00390625,-0.0078125,-0.02146551012992859,-0.03196793794631958,-0.16299819946289062
611,771000000,imu1_frame,0.038737768098094955,-0.007600743846990676,-0.7879126532266258,0.6145203535287743,-0.001953125,-0.00390625,-0.0078125,0.009222924709320068,-0.008166670799255371,-0.16290760040283203
611,791000000,imu1_frame,0.03717614425364488,-0.008903575003183227,-0.787961326403444,0.614536905924388,-0.001953125,-0.00390625,-0.0078125,0.004711061716079712,-0.009494602680206299,-0.16480350494384766
611,811000000,imu1_frame,0.03883254546358369,-0.00785830422728842,-0.7880003470075835,0.6143986764173718,-0.001953125,-0.00390625,-0.0078125,0.042830049991607666,-0.013192713260650635,-0.16268539428710938
611,831000000,imu1_frame,0.03699786001490972,-0.008990541699411242,-0.7880642607125632,0.6144143955847956,-0.00390625,-0.015625,-0.0078125,0.001016378402709961,-0.00862199068069458,-0.16503143310546875
611,851000000,imu1_frame,0.03861761566634729,-0.008119663503518214,-0.7881031111714735,0.6142770034656027,-0.00390625,-0.015625,-0.0078125,0.03647756576538086,-0.014561712741851807,-0.16292858123779297
611,871000000,imu1_frame,0.03908257621934716,-0.006276320305658881,-0.7881979174117364,0.6141475417416251,-0.00390625,-0.015625,-0.0078125,0.030706405639648438,0.008339345455169678,-0.16274166107177734
611,891000000,imu1_frame,0.037798125038211366,-0.007980023686159925,-0.7882335698970597,0.6141624054376017,-0.00390625,-0.015625,-0.0078125,0.025644659996032715,-0.002506852149963379,-0.16419696807861328
611,911000000,imu1_frame,0.03676630244225787,-0.009722170820883657,-0.7882429507751223,0.614187893850556,-0.001953125,-0.00390625,-0.005859375,-0.011166274547576904,-0.016982316970825195,-0.1650981903076172
611,931000000,imu1_frame,0.037771852661909674,-0.008023623568633825,-0.7883065162387292,0.6140698210031773,-0.001953125,-0.00390625,-0.005859375,0.02478441596031189,-0.002805948257446289,-0.16422271728515625
611,951000000,imu1_frame,0.03649523771193121,-0.009601304030324971,-0.7883267682667371,0.6140983789421604,-0.001953125,-0.00390625,-0.005859375,-0.013815104961395264,-0.011817634105682373,-0.12646961212158203
611,971000000,imu1_frame,0.03791403229511535,-0.008242601774353547,-0.7883703503893533,0.6139762017359328,-0.001953125,-0.00390625,-0.005859375,0.02440914511680603,-0.00782763957977295,-0.1639423370361328
611,991000000,imu1_frame,0.03627218390729605,-0.0094440162092104,-0.7884104740499035,0.6140065664476577,-0.001953125,-0.00390625,-0.005859375,-0.01528787612915039,-0.006666779518127441,-0.1268453598022461
612,11000000,imu1_frame,0.03795802871438548,-0.0084509980999575,-0.7884368211810974,0.6138852887087934,-0.001953125,-0.00390625,-0.005859375,0.022650331258773804,-0.01151055097579956,-0.16380882263183594
612,31000000,imu1_frame,0.03621136495965401,-0.009495419029780412,-0.7884838831999048,0.6139150918483812,-0.001953125,-0.00390625,-0.005859375,-0.016773104667663574,-0.0066779255867004395,-0.16597557067871094
612,51000000,imu1_frame,0.037958460862931795,-0.008483585162619836,-0.7884964034397071,0.6138082809757069,0.001953125,0.001953125,-0.00390625,0.02232295274734497,-0.011970758438110352,-0.16379737854003906
612,71000000,imu1_frame,0.03624735449679601,-0.009465172596288537,-0.7885315691514808,0.6138521843662443,0.001953125,0.001953125,-0.00390625,-0.015809983015060425,-0.006607949733734131,-0.16593456268310547
612,91000000,imu1_frame,0.03800254541344215,-0.008467312957544692,-0.7885433976922591,0.6137454041451762,0.001953125,0.001953125,-0.00390625,0.023242950439453125,-0.012209892272949219,-0.16373729705810547
612,111000000,imu1_frame,0.03628564024321773,-0.00943696449434844,-0.7885791341273667,0.6137892514798582,0.001953125,0.001953125,-0.00390625,-0.014836043119430542,-0.006596684455871582,-0.1658916473388672
612,131000000,imu1_frame,0.03801679409205961,-0.008474278457552728,-0.7885798941412788,0.6136975317920997,0.001953125,-0.001953125,-0.001953125,0.02341407537460327,-0.0124586820602417,-0.1637134552001953
612,151000000,imu1_frame,0.03625545969088354,-0.009444135720194329,-0.7886061379489269,0.6137562294041334,0.001953125,-0.001953125,-0.001953125,-0.015361964702606201,-0.006326794624328613,-0.16593170166015625
612,171000000,imu1_frame,0.037895743522338945,-0.008332541637561877,-0.7886134317040697,0.6136638629646345,0.001953125,-0.001953125,-0.001953125,0.023278921842575073,-0.008802413940429688,-0.1248779296875
612,191000000,imu1_frame,0.03640083187037068,-0.009685946153535446,-0.7886217632669296,0.6137237785747061,0.001953125,-0.001953125,-0.001953125,-0.016004979610443115,-0.011778175830841064,-0.1656351089477539
612,211000000,imu1_frame,0.03774261959022053,-0.008390137526807185,-0.7886446159447205,0.6136324388427926,-0.00390625,-0.013671875,-0.001953125,0.020255684852600098,-0.00783538818359375,-0.16414833068847656
612,231000000,imu1_frame,0.03916427124744068,-0.007183684224160616,-0.7886599558463027,0.613538938114878,-0.00390625,-0.013671875,-0.001953125,0.021511197090148926,-0.006219804286956787,-0.12331485748291016
612,251000000,imu1_frame,0.03754993548602065,-0.008572914283595476,-0.7886753440891691,0.6136022401454483,-0.00390625,-0.013671875,-0.001953125,0.015121102333068848,-0.008325397968292236,-0.16437053680419922
612,271000000,imu1_frame,0.03573487550070256,-0.009699217069753603,-0.7887000016043496,0.6136621638413778,-0.00390625,-0.013671875,-0.001953125,-0.026363760232925415,-0.003965258598327637,-0.12750625610351562
612,291000000,imu1_frame,0.037365721783982515,-0.008657473927964607,-0.7887060992442503,0.6135727666672205,-0.00390625,-0.005859375,-0.001953125,0.011293858289718628,-0.007402539253234863,-0.12554931640625
612,311000000,imu1_frame,0.035728504445966286,-0.009901860888212955,-0.7887199079018554,0.6136337132201045,-0.00390625,-0.005859375,-0.001953125,0.01018911600112915,-0.006997048854827881,-0.13134288787841797
612,331000000,imu1_frame,0.037325596058060184,-0.008807680043543981,-0.7887287008881892,0.6135440172036484,-0.00390625,-0.005859375,-0.001953125,0.008895128965377808,-0.009219944477081299,-0.16461944580078125
612,351000000,imu1_frame,0.0365564179956661,-0.01068289394565708,-0.7887025008734697,0.613594221938413,-0.00390625,-0.005859375,-0.001953125,-0.025481760501861572,-0.028937041759490967,-0.16501617431640625
612,371000000,imu1_frame,0.03620814671009657,-0.008706849552259043,-0.7887828594954082,0.6135427951243024,-0.00390625,-0.005859375,-0.001953125,-0.0070847272872924805,-0.033335208892822266,-0.170166015625
612,391000000,imu1_frame,0.035767238962376526,-0.006747607204812606,-0.7888615214060665,0.6134921959234069,-0.00390625,-0.005859375,-0.001953125,0.009676128625869751,0.002186119556427002,-0.13231563568115234
612,411000000,imu1_frame,0.03686953187053034,-0.00836813027407258,-0.788801957952839,0.6134835638752937,-0.00390625,-0.005859375,-0.001953125,0.00719800591468811,0.003058016300201416,-0.16542816162109375
612,431000000,imu1_frame,0.03825443761396146,-0.00983877247577066,-0.788757757316165,0.6134337754253372,0.001953125,0.0078125,-0.005859375,0.010892421007156372,-0.03617936372756958,-0.1628713607788086
612,451000000,imu1_frame,0.03693094469828653,-0.008378745339329056,-0.7888673513500521,0.6133956340928618,0.001953125,0.0078125,-0.005859375,0.008079975843429565,0.002209782600402832,-0.16533660888671875
612,471000000,imu1_frame,0.03787788651868428,-0.010142180957719599,-0.7888249901367533,0.6133657447347787,0.001953125,0.0078125,-0.005859375,0.001511901617050171,-0.03630506992340088,-0.12425041198730469
612,491000000,imu1_frame,0.037126624341596776,-0.008286983253128094,-0.7889326927531638,0.6133010239505576,0.001953125,0.0078125,-0.005859375,0.012260198593139648,0.0013368725776672363,-0.1650829315185547
612,511000000,imu1_frame,0.03771314290355967,-0.010186384655812791,-0.7889083025357335,0.6132680055327906,0.0,0.001953125,-0.0078125,-0.001477360725402832,-0.034956157207489014,-0.16353893280029297
612,531000000,imu1_frame,0.037128997211081045,-0.008264428059380864,-0.7890275339215629,0.6131791642812137,0.0,0.001953125,-0.0078125,0.012655764818191528,0.0017292499542236328,-0.1650867462158203
612,551000000,imu1_frame,0.037680571705288386,-0.010174063316373877,-0.7890037091303068,0.613147461815031,0.0,0.001953125,-0.0078125,-0.0017375946044921875,-0.03430593013763428,-0.1635913848876953
612,571000000,imu1_frame,0.037131011971697686,-0.00824290080716246,-0.7891103784178001,0.6130727144552736,0.0,0.001953125,-0.005859375,0.013022005558013916,0.0021012425422668457,-0.16509056091308594
612,591000000,imu1_frame,0.03769591773165496,-0.010153709382016634,-0.789073427849348,0.6130571306446354,0.001953125,0.005859375,-0.005859375,-0.0011876821517944336,-0.034123241901397705,-0.16357803344726562
612,611000000,imu1_frame,0.037156711041558245,-0.008224504244780714,-0.7891788634297354,0.6129832443633778,0.001953125,0.005859375,-0.005859375,0.013703078031539917,0.002130866050720215,-0.16505908966064453
612,631000000,imu1_frame,0.037631649577501904,-0.010157752958814175,-0.7891434248876964,0.6129709079242018,0.001953125,0.005859375,-0.005859375,-0.0021587610244750977,-0.03336596488952637,-0.16367053985595703
612,651000000,imu1_frame,0.03718099865677183,-0.008203187808783461,-0.7892474585587999,0.6128937348408241,0.001953125,0.005859375,-0.005859375,0.01439732313156128,0.0022228360176086426,-0.16503143310546875
612,671000000,imu1_frame,0.037512992748715224,-0.010176517262584046,-0.789168006942405,0.6129462216948492,0.0,0.0,0.001953125,-0.004190981388092041,-0.03222048282623291,-0.16383743286132812
612,691000000,imu1_frame,0.03718190494678775,-0.00820665495297696,-0.7892234288576719,0.6129245761928214,0.0,0.0,0.001953125,0.014347344636917114,0.0021399259567260742,-0.16502857208251953
612,711000000,imu1_frame,0.03751468352836296,-0.010180038443266393,-0.7891439481705903,0.6129770341560875,0.0,0.0,0.001953125,-0.004230916500091553,-0.032312870025634766,-0.1638326644897461
612,731000000,imu1_frame,0.03712844273416733,-0.008201858566473706,-0.7892251737656941,0.6129256344375729,-0.00390625,-0.00390625,-0.001953125,0.01358109712600708,0.0028533935546875,-0.16510772705078125
612,751000000,imu1_frame,0.03754963169996904,-0.010136429749022163,-0.7891689449905475,0.6129434347585804,-0.00390625,-0.00390625,-0.001953125,-0.0031442642211914062,-0.03203922510147095,-0.16379928588867188
612,771000000,imu1_frame,0.037097990548007484,-0.008171078353853329,-0.7892512943193839,0.612894254330233,-0.00390625,-0.00390625,-0.001953125,0.013504087924957275,0.0037115812301635742,-0.1651620864868164
612,791000000,imu1_frame,0.03546506554131975,-0.006943442683761168,-0.7893374054575699,0.612895160753745,-0.00390625,-0.00390625,-0.001953125,0.003079146146774292,0.0031391382217407227,-0.13268470764160156
612,811000000,imu1_frame,0.03710163105989646,-0.008086640683902984,-0.789289680229725,0.6128457194906423,0.0,0.0,-0.00390625,0.01460680365562439,-0.034061968326568604,-0.13002681732177734
612,831000000,imu1_frame,0.03721777608440389,-0.010079925427868947,-0.7892510492989887,0.6128588854109444,0.0,0.0,-0.00390625,-0.007510125637054443,-0.02714616060256958,-0.125244140625
612,851000000,imu1_frame,0.03735098497906647,-0.008083627484315428,-0.7893317795452155,0.6127763871819571,0.0,0.0,-0.00390625,0.018532156944274902,0.0021033287048339844,-0.16482162475585938
612,871000000,imu1_frame,0.03721714397172973,-0.01007638303904708,-0.7892989809913089,0.6127972497535537,0.0,0.0,-0.00390625,-0.007430374622344971,-0.02704864740371704,-0.16430950164794922
612,891000000,imu1_frame,0.037390530430795814,-0.008098118245453154,-0.7893905569102381,0.6126980637931956,0.00390625,0.001953125,-0.005859375,0.019024133682250977,0.0014540553092956543,-0.16475868225097656
612,911000000,imu1_frame,0.03682237337648646,-0.01001862257412217,-0.7893829087952732,0.6127139326982483,0.00390625,0.001953125,-0.005859375,-0.012752264738082886,-0.02138543128967285,-0.1258401870727539
612,931000000,imu1_frame,0.03764291168679393,-0.008195150035104893,-0.7894543394695578,0.6125991320662529,0.00390625,0.001953125,-0.005859375,0.02181890606880188,-0.0030031204223632812,-0.16435813903808594
612,951000000,imu1_frame,0.0368040922226683,-0.010006333778465553,-0.7894562668610895,0.6126207103859054,0.00390625,0.001953125,-0.005859375,-0.012816280126571655,-0.020924091339111328,-0.1649341583251953
612,971000000,imu1_frame,0.03767828944646717,-0.008156134686537558,-0.7895609866237141,0.612460016958781,0.001953125,0.005859375,-0.01171875,0.022932857275009155,-0.002739250659942627,-0.16431808471679688
612,991000000,imu1_frame,0.036544682042276753,-0.009737753289343025,-0.7896109805522368,0.6124411496353263,0.001953125,0.005859375,-0.01171875,-0.013458251953125,-0.013574361801147461,-0.12634754180908203
613,11000000,imu1_frame,0.036216269185793425,-0.007753201641003061,-0.7897467173635208,0.6123139653185444,0.001953125,0.005859375,-0.01171875,0.005346149206161499,-0.018004894256591797,-0.17046165466308594
613,31000000,imu1_frame,0.03762512038372112,-0.009197235543709315,-0.7897407168569557,0.6122167600717295,0.001953125,0.005859375,-0.01171875,0.009823977947235107,-0.018023788928985596,-0.16404342651367188
613,51000000,imu1_frame,0.035729428684310054,-0.008784983665064552,-0.7898675008106648,0.6121728213102995,0.001953125,0.005859375,-0.01171875,0.024652570486068726,-0.02802830934524536,-0.16690635681152344
613,71000000,imu1_frame,0.037773072268655825,-0.008945925983429035,-0.7898845483805946,0.6120257883858082,0.001953125,0.005859375,-0.01171875,0.015254944562911987,-0.015798985958099365,-0.16391468048095703
613,91000000,imu1_frame,0.035844847403218846,-0.008774546874642082,-0.790005325052302,0.6119883500776719,0.001953125,0.005859375,-0.01171875,-0.01237475872039795,0.009919822216033936,-0.1276865005493164
613,111000000,imu1_frame,0.03768111827282083,-0.009051870443100142,-0.7901741904758666,0.6116559046334792,-0.001953125,-0.017578125,-0.03515625,0.012846440076828003,-0.016113340854644775,-0.12495040893554688
613,131000000,imu1_frame,0.03559984897499431,-0.008648852154829413,-0.7904557419599548,0.611422577365196,-0.001953125,-0.017578125,-0.03515625,-0.014245420694351196,0.01510918140411377,-0.16713428497314453
613,151000000,imu1_frame,0.03741243112704355,-0.009098582538680839,-0.7906201930441639,0.611095112191024,-0.001953125,-0.017578125,-0.03515625,0.008563786745071411,-0.013291597366333008,-0.16439151763916016
613,171000000,imu1_frame,0.036027061579580466,-0.007608774515050409,-0.7909170954956799,0.610814460730096,-0.001953125,-0.017578125,-0.03515625,0.0052013397216796875,-0.01262897253036499,-0.17077255249023438
613,191000000,imu1_frame,0.036347846189762834,-0.0055577625463684105,-0.7910452179675457,0.6106516261204268,0.001953125,0.01171875,-0.013671875,0.034757524728775024,0.015352189540863037,-0.17084693908691406
613,211000000,imu1_frame,0.03697267573227808,-0.007428986753971899,-0.7910581445902127,0.6105774670608927,0.001953125,0.01171875,-0.013671875,0.022103220224380493,0.018074095249176025,-0.16556930541992188
613,231000000,imu1_frame,0.03727037810175329,-0.009356623162074838,-0.7910742145163882,0.6105120470936137,0.001953125,0.01171875,-0.013671875,0.0037237703800201416,-0.015241146087646484,-0.1254425048828125
613,251000000,imu1_frame,0.037374961644838674,-0.007294630664682419,-0.7912118869662539,0.6103553477514655,0.001953125,0.01171875,-0.013671875,0.030071556568145752,0.015490293502807617,-0.1650238037109375
613,271000000,imu1_frame,0.03720708097583786,-0.00931836508957856,-0.7913014253818821,0.6102219722247934,0.0,-0.005859375,-0.0234375,0.003419727087020874,-0.013724744319915771,-0.1646108627319336
613,291000000,imu1_frame,0.03546333736723543,-0.010398207085948654,-0.7914536814432114,0.610110890840479,0.0,-0.005859375,-0.0234375,0.002758532762527466,-0.009582221508026123,-0.1705780029296875
613,311000000,imu1_frame,0.03580224407842078,-0.008463694052072085,-0.7916475376642254,0.609869446121144,0.0,-0.005859375,-0.0234375,-0.007814675569534302,-0.0226210355758667,-0.17081928253173828
613,331000000,imu1_frame,0.03761228437583565,-0.009221289374764397,-0.7917270922205405,0.6096462050487199,0.0,-0.005859375,-0.0234375,0.01126164197921753,-0.016709566116333008,-0.16405296325683594
613,351000000,imu1_frame,0.03576762408645876,-0.008358830905540439,-0.7918096640930902,0.609662417130899,-0.001953125,-0.005859375,-0.001953125,-0.006952792406082153,0.018594682216644287,-0.16699600219726562
613,371000000,imu1_frame,0.03627862346484813,-0.006462559490525264,-0.7918635923851357,0.6095852260834698,-0.001953125,-0.005859375,-0.001953125,0.023602008819580078,0.002840757369995117,-0.1707324981689453
613,391000000,imu1_frame,0.03692994426622972,-0.008351853910611396,-0.791807566450645,0.6095959345863916,-0.001953125,-0.005859375,-0.001953125,0.011129170656204224,0.004900038242340088,-0.1653461456298828
613,411000000,imu1_frame,0.03578256971867818,-0.010048228101683302,-0.7917975703408376,0.609651743554212,-0.001953125,-0.005859375,-0.001953125,0.01220172643661499,-0.007721304893493652,-0.1702737808227539
613,431000000,imu1_frame,0.034881216613688086,-0.01188306325170708,-0.7917747471209365,0.6097006178091684,-0.001953125,-0.005859375,-0.001953125,-0.023641496896743774,-0.025406301021575928,-0.1707324981689453
613,451000000,imu1_frame,0.0361098573424254,-0.01037085101647452,-0.7918082251674246,0.6096132037686822,-0.001953125,-0.005859375,-0.001953125,-0.025624871253967285,-0.016589462757110596,-0.16577816009521484
613,471000000,imu1_frame,0.03408296842806103,-0.010060478292188183,-0.7918746754938873,0.6096487811446153,-0.001953125,-0.005859375,-0.001953125,-0.01419752836227417,0.01232975721359253,-0.17258930206298828
613,491000000,imu1_frame,0.03605815983440025,-0.0103280824926943,-0.7918229668824682,0.6095978419735645,-0.001953125,0.001953125,0.0,0.01316031813621521,-0.015303194522857666,-0.16977500915527344
613,511000000,imu1_frame,0.03594887940001994,-0.008304402729985798,-0.7918836400712065,0.609556408835767,-0.001953125,0.001953125,0.0,-0.003429710865020752,-0.02172267436981201,-0.13160324096679688
613,531000000,imu1_frame,0.036161304375675773,-0.006287219676026009,-0.791933336631632,0.6095034218657721,-0.001953125,0.001953125,0.0,0.023934900760650635,0.007001817226409912,-0.1709423065185547
613,551000000,imu1_frame,0.036820615070724094,-0.00814818079699694,-0.7918638269235605,0.6095322215153899,-0.001953125,0.001953125,0.0,0.011914551258087158,0.009392142295837402,-0.12650775909423828
613,571000000,imu1_frame,0.03720239724760592,-0.01013997839912967,-0.7917900705121926,0.6095749721858611,-0.0078125,-0.025390625,0.001953125,-0.005969494581222534,-0.026003599166870117,-0.1252431869506836
613,591000000,imu1_frame,0.03616139461329282,-0.008399822651373158,-0.7918616281484534,0.6095711266006024,-0.0078125,-0.025390625,0.001953125,-0.0012950003147125244,-0.025738775730133057,-0.1703348159790039
613,611000000,imu1_frame,0.03538724740991221,-0.006563698717129652,-0.791925802425122,0.6095557267660004,-0.0078125,-0.025390625,0.001953125,0.008646726608276367,0.01190871000289917,-0.13289260864257812
613,631000000,imu1_frame,0.036338313726748374,-0.008251886842211752,-0.791850301698537,0.6095773396534484,-0.0078125,-0.025390625,0.001953125,0.003196626901626587,0.013503611087799072,-0.16622638702392578
613,651000000,imu1_frame,0.03765399661710863,-0.009632684989527773,-0.7917711628977726,0.6095800304489644,-0.005859375,-0.01953125,0.001953125,0.007049620151519775,-0.02353304624557495,-0.16384029388427734
613,671000000,imu1_frame,0.03554759860320842,-0.009146796417037117,-0.7918283858791851,0.6096396572277879,-0.005859375,-0.01953125,0.001953125,0.019331127405166626,-0.030029237270355225,-0.12796974182128906
613,691000000,imu1_frame,0.0335000551037636,-0.008488557532110573,-0.7918852740163972,0.6096912361966867,-0.005859375,-0.01953125,0.001953125,-0.004488080739974976,0.004515945911407471,-0.13096046447753906
613,711000000,imu1_frame,0.03515745798529878,-0.007802035195453754,-0.7918602760164444,0.6096395530655645,-0.005859375,-0.01953125,0.001953125,-0.009723573923110962,-0.0045697689056396484,-0.17192363739013672
613,731000000,imu1_frame,0.0369906778014855,-0.007062850651809124,-0.7918493372906541,0.60955429038668,0.0,-0.001953125,-0.001953125,0.027464598417282104,-0.01491093635559082,-0.1695537567138672
613,751000000,imu1_frame,0.03528606185369852,-0.008137227499049821,-0.7918726621378082,0.609611652059134,0.0,-0.001953125,-0.001953125,0.027348637580871582,-0.011273980140686035,-0.16773605346679688
613,771000000,imu1_frame,0.03357805381335908,-0.009211755353686173,-0.7918928320232588,0.6096666305905167,0.0,-0.001953125,-0.001953125,-0.011890292167663574,-0.007593274116516113,-0.16967105865478516
613,791000000,imu1_frame,0.035140202768243756,-0.00817219759538057,-0.7919018921623592,0.6095816389340675,-0.005859375,-0.01171875,-0.001953125,0.02469855546951294,-0.010060608386993408,-0.16792678833007812
613,811000000,imu1_frame,0.03326533106717389,-0.009163480901399772,-0.791929559190127,0.6096367948604251,-0.005859375,-0.01171875,-0.001953125,-0.016126573085784912,-0.0031062960624694824,-0.13103389739990234
613,831000000,imu1_frame,0.034800031005259045,-0.008083251377205709,-0.7919403929068103,0.6095523217672237,-0.005859375,-0.01171875,-0.001953125,-0.01853889226913452,-0.0046166181564331055,-0.13326263427734375
613,851000000,imu1_frame,0.03359866256961765,-0.009795717859257777,-0.791932755306828,0.6096045315262104,-0.005859375,-0.01171875,-0.001953125,-0.018492579460144043,-0.016844868659973145,-0.16942691802978516
613,871000000,imu1_frame,0.034798262144407226,-0.008201090218457704,-0.7919519675407187,0.609535810415879,0.001953125,0.0,0.0,0.019102782011032104,-0.006410479545593262,-0.16838455200195312
613,891000000,imu1_frame,0.03357585051729569,-0.009787739159446536,-0.7919345099905372,0.6096036370546313,0.001953125,0.0,0.0,-0.0187491774559021,-0.016449391841888428,-0.16945934295654297
613,911000000,imu1_frame,0.03463916273698774,-0.008102060169552528,-0.7919590958870432,0.6095369352776471,0.001953125,0.0,0.0,0.01782435178756714,-0.0029836297035217285,-0.12956905364990234
613,931000000,imu1_frame,0.0339405502648497,-0.009985798569763159,-0.7919218388130711,0.609596689693741,0.001953125,0.0,0.0,-0.015470951795578003,-0.023853778839111328,-0.16890239715576172
613,951000000,imu1_frame,0.03448153484983066,-0.008172271427814067,-0.7919417659449235,0.6095674508092982,-0.00390625,-0.015625,0.00390625,0.014531254768371582,-0.0022104382514953613,-0.1688222885131836
613,971000000,imu1_frame,0.03408433922672903,-0.01022404562649704,-0.7918728306260839,0.6096483796638339,-0.00390625,-0.015625,0.00390625,-0.01612710952758789,-0.029279708862304688,-0.16861629486083984
613,991000000,imu1_frame,0.03418113293872888,-0.008306231085365599,-0.7919055384333634,0.6096296210608094,-0.00390625,-0.015625,0.00390625,0.008250653743743896,-0.0007406473159790039,-0.13012027740478516
614,11000000,imu1_frame,0.035095616773875495,-0.010065900073024407,-0.791815923574891,0.6096675475308028,-0.00390625,-0.015625,0.00390625,0.0013679862022399902,-0.03888481855392456,-0.1673116683959961
614,31000000,imu1_frame,0.03405781450900173,-0.008322510785417896,-0.7918802184236255,0.6096691896056813,-0.005859375,-0.015625,0.001953125,0.006124526262283325,0.0004545450210571289,-0.1693410873413086
614,51000000,imu1_frame,0.03531260129499865,-0.009782851929936987,-0.7918030019512352,0.6096764076942045,-0.005859375,-0.015625,0.001953125,0.008088856935501099,-0.037093281745910645,-0.16712284088134766
614,71000000,imu1_frame,0.033893794898126904,-0.00828175306375285,-0.791868682284954,0.6096938684699766,-0.005859375,-0.015625,0.001953125,0.004059791564941406,0.0030255913734436035,-0.1695728302001953
614,91000000,imu1_frame,0.032608514042702465,-0.006682005922421042,-0.7919303946339891,0.6097034407510211,-0.005859375,-0.015625,0.001953125,0.0032687485218048096,0.0040288567543029785,-0.13264846801757812
614,111000000,imu1_frame,0.03402525274854231,-0.007972406510622122,-0.7918795092960742,0.609676607445977,-0.005859375,-0.01171875,-0.001953125,0.009790629148483276,-0.032804787158966064,-0.1304330825805664
614,131000000,imu1_frame,0.034602528055300404,-0.009867136509279126,-0.7918280431936378,0.6096832412666631,-0.005859375,-0.01171875,-0.001953125,-0.0038900375366210938,-0.029945075511932373,-0.1289987564086914
614,151000000,imu1_frame,0.03416674417783062,-0.00791678529988607,-0.7919067441820926,0.609634043194538,-0.005859375,-0.01171875,-0.001953125,0.012668907642364502,0.005456089973449707,-0.1693248748779297
614,171000000,imu1_frame,0.03481582967074563,-0.009819812169771437,-0.7918151579651456,0.6096885966703984,0.001953125,0.001953125,0.00390625,-3.4362077713012695e-05,-0.031755805015563965,-0.16778945922851562
614,191000000,imu1_frame,0.03284622953596096,-0.009887032899731415,-0.7918302589605608,0.6097771828956554,0.001953125,0.001953125,0.00390625,0.007735222578048706,-0.009383738040924072,-0.13521289825439453
614,211000000,imu1_frame,0.03368780760503834,-0.00806376270536144,-0.791838699038362,0.6097471459999069,0.001953125,0.001953125,0.00390625,-0.03562161326408386,-0.03023773431777954,-0.13475894927978516
614,231000000,imu1_frame,0.035141054548078386,-0.009464974680764317,-0.7917437366879209,0.6097682969415432,0.001953125,0.001953125,0.00390625,0.009164303541183472,-0.03018110990524292,-0.1284170150756836
614,251000000,imu1_frame,0.03368290948765599,-0.008098670339676848,-0.7918027117665051,0.6097936854267881,0.0,-0.001953125,0.001953125,0.002918332815170288,0.008317410945892334,-0.13084793090820312
614,271000000,imu1_frame,0.03523756690038437,-0.009343667569009643,-0.7917224635977428,0.6097922190304017,0.0,-0.001953125,0.001953125,0.012084811925888062,-0.02946650981903076,-0.1673908233642578
614,291000000,imu1_frame,0.033848528803964606,-0.007909278026703511,-0.7917820414458897,0.6098138398418674,0.0,-0.001953125,0.001953125,0.007722288370132446,-0.029797911643981934,-0.13068866729736328
614,311000000,imu1_frame,0.03484991618461521,-0.009641689315941976,-0.7917004988990409,0.6098383730235987,0.0,-0.001953125,0.001953125,0.0025097131729125977,-0.029485583305358887,-0.12874889373779297
614,331000000,imu1_frame,0.03390238479275954,-0.007924668212672159,-0.7917457888604479,0.6098577159967968,0.00390625,0.001953125,0.00390625,0.00834164023399353,0.00836092233657837,-0.13061237335205078
614,351000000,imu1_frame,0.034877693846561295,-0.009708587642185294,-0.7916511351271324,0.6098998032872798,0.00390625,0.001953125,0.00390625,0.0020967423915863037,-0.030884385108947754,-0.12868595123291016
614,371000000,imu1_frame,0.033946120600829056,-0.007984207716333066,-0.7916963920782654,0.6099186307152407,0.00390625,0.001953125,0.00390625,0.008266478776931763,0.0068852901458740234,-0.13053512573242188
614,391000000,imu1_frame,0.03512074566684955,-0.00964719510346139,-0.7916004795483514,0.6099525765412096,0.00390625,0.001953125,0.00390625,0.006545007228851318,-0.03285861015319824,-0.16743850708007812
614,411000000,imu1_frame,0.03387011669623683,-0.008067193898575967,-0.791687130225706,0.6099337860887626,-0.001953125,-0.009765625,-0.001953125,0.006092339754104614,0.00649869441986084,-0.16967296600341797
614,431000000,imu1_frame,0.03512690097389137,-0.009584276548244418,-0.791631561631756,0.6099128733675693,-0.001953125,-0.009765625,-0.001953125,0.007419228553771973,-0.03193700313568115,-0.16745376586914062
614,451000000,imu1_frame,0.033777767229294105,-0.008079830008279361,-0.7917181482938397,0.6098984771666631,-0.001953125,-0.009765625,-0.001953125,0.004538536071777344,-0.03163987398147583,-0.13072872161865234
614,471000000,imu1_frame,0.032567014023376376,-0.006445927678105529,-0.7917880079076285,0.6098930973110281,-0.00390625,-0.005859375,0.0,0.005325376987457275,0.008075088262557983,-0.13276290893554688
614,491000000,imu1_frame,0.033868145101593354,-0.007938407275054458,-0.791706476314784,0.609910473593085,-0.001953125,0.005859375,0.001953125,0.0076132118701934814,-0.030534207820892334,-0.13065338134765625
614,511000000,imu1_frame,0.03492084272919529,-0.00960521049577993,-0.791622466110159,0.6099361817633749,-0.001953125,0.005859375,0.001953125,0.0039705634117126465,-0.02981865406036377,-0.12866592407226562
614,531000000,imu1_frame,0.03309250244287114,-0.008836857762086037,-0.7916685384215089,0.6099899355731315,-0.001953125,0.005859375,0.001953125,0.02392306923866272,-0.03523659706115723,-0.13527965545654297
614,551000000,imu1_frame,0.03140442806440129,-0.008154035968343803,-0.7916938136292796,0.6100558819128806,0.009765625,0.017578125,0.00390625,0.0059470534324646,-0.004586756229400635,-0.1376352310180664
614,571000000,imu1_frame,0.03357159389769941,-0.008452965053848216,-0.7916141743243671,0.6100397482735997,0.009765625,0.017578125,0.00390625,-0.003192692995071411,0.004031181335449219,-0.13087940216064453
614,591000000,imu1_frame,0.03570508068112548,-0.00890988782160168,-0.7915270256704381,0.6100251869766283,0.009765625,0.017578125,0.00390625,0.024313658475875854,-0.02845466136932373,-0.12783432006835938
614,611000000,imu1_frame,0.03394459498952608,-0.008507255914305272,-0.7915503259615008,0.6101011986040084,0.009765625,0.017578125,0.00390625,0.0018796920776367188,-0.001287698745727539,-0.1694316864013672
614,631000000,imu1_frame,0.03582612324943989,-0.009140066721651055,-0.7914673900971694,0.6100920573864362,0.0,-0.001953125,0.00390625,0.023387879133224487,-0.033495426177978516,-0.16664695739746094
614,651000000,imu1_frame,0.03391855824373426,-0.008524080865946002,-0.7915041431478621,0.6101623249855942,0.0,-0.001953125,0.00390625,0.0012355148792266846,-0.0012705326080322266,-0.13039779663085938
614,671000000,imu1_frame,0.03290339000988489,-0.006806079169099134,-0.7915486168534789,0.6101818018996843,0.0,-0.001953125,0.00390625,0.006045430898666382,-0.0016629695892333984,-0.13223838806152344
614,691000000,imu1_frame,0.03402398423321975,-0.008465224991519416,-0.7914569698278168,0.6102184636453659,0.0,-0.001953125,0.00390625,0.0035272538661956787,-0.04070854187011719,-0.1302776336669922
614,711000000,imu1_frame,0.03285375991763809,-0.006800057972061784,-0.7915149781828406,0.6102281778016059,-0.00390625,-0.00390625,0.001953125,0.005321711301803589,-0.0010032951831817627,-0.13230419158935547
614,731000000,imu1_frame,0.034087759283491795,-0.008318041479794844,-0.7914360803519604,0.6102440213308906,-0.00390625,-0.00390625,0.001953125,0.006251424551010132,-0.00014322996139526367,-0.16930294036865234
614,751000000,imu1_frame,0.035810755395360064,-0.007399391083992755,-0.7914103314817679,0.6101905653429249,-0.00390625,-0.00390625,0.001953125,0.004791975021362305,-0.0064430832862854,-0.13207530975341797
614,771000000,imu1_frame,0.03427521368045316,-0.008735377315544331,-0.7913965378095059,0.6102789713347836,-0.00390625,-0.00390625,0.001953125,0.004141181707382202,-0.008852958679199219,-0.1689128875732422
614,791000000,imu1_frame,0.036053254793444955,-0.007781100198903158,-0.7913820499002511,0.6102082172456955,0.0,0.001953125,0.0,0.04303058981895447,-0.015248656272888184,-0.1667776107788086
614,811000000,imu1_frame,0.034266279016376903,-0.008625315370238315,-0.7913985833517436,0.610278385923989,0.0,0.001953125,0.0,0.005317509174346924,-0.007043778896331787,-0.1298999786376953
614,831000000,imu1_frame,0.03622336445816461,-0.008137703298454918,-0.7913670253051585,0.6102129766827495,0.0,0.001953125,0.0,0.04139745235443115,-0.022795438766479492,-0.1273632049560547
614,851000000,imu1_frame,0.03434479642990799,-0.008600703217857879,-0.7913835074803256,0.6102938693371284,0.001953125,0.005859375,0.001953125,0.006812989711761475,-0.007607579231262207,-0.12980365753173828
614,871000000,imu1_frame,0.03247633827915668,-0.00921904188982321,-0.7913937617185092,0.6103738285932965,0.001953125,0.001953125,0.001953125,-0.02947506308555603,0.0050643086433410645,-0.13202857971191406
614,891000000,imu1_frame,0.034286485958823665,-0.008322196546650498,-0.7913680386497585,0.6103210674135937,0.001953125,0.001953125,0.001953125,-0.029844462871551514,-0.0026186108589172363,-0.172943115234375
614,911000000,imu1_frame,0.0360412031238015,-0.00732284918842816,-0.7913431683355066,0.6102650223352757,0.001953125,0.001953125,0.001953125,0.009212017059326172,-0.008050620555877686,-0.1317739486694336
614,931000000,imu1_frame,0.03412256113963691,-0.008162793847238793,-0.7913431963992208,0.6103646165453428,-0.001953125,-0.009765625,0.00390625,-0.03050142526626587,0.0017769932746887207,-0.13415050506591797
614,951000000,imu1_frame,0.03586042963051749,-0.0074065986284284225,-0.7913030366838426,0.6103266961377335,-0.001953125,-0.009765625,0.00390625,0.0053796470165252686,-0.007227122783660889,-0.1320028305053711
614,971000000,imu1_frame,0.037765364664518485,-0.0075035584723868376,-0.7912323302735372,0.6103022803266553,-0.001953125,-0.009765625,0.00390625,0.03363931179046631,-0.03142458200454712,-0.16829586029052734
614,991000000,imu1_frame,0.03568570375882189,-0.007417566380174592,-0.7912648522885934,0.61038630701298,-0.001953125,-0.009765625,0.00390625,0.0025115609169006348,-0.0053490400314331055,-0.13224506378173828
615,11000000,imu1_frame,0.03750812022945288,-0.007103996694039482,-0.7912199308370019,0.6103390002237394,-0.005859375,-0.013671875,0.001953125,0.034413039684295654,-0.022201061248779297,-0.12972640991210938
615,31000000,imu1_frame,0.035368573170625285,-0.00710003234702529,-0.7912635715144455,0.6104102013947257,-0.005859375,-0.013671875,0.001953125,0.04045340418815613,-0.03573274612426758,-0.12886905670166016
615,51000000,imu1_frame,0.03323052085195619,-0.007060405657672347,-0.7913044171912061,0.6104778476648781,-0.005859375,-0.013671875,0.001953125,0.007874280214309692,-0.009658634662628174,-0.13174724578857422
615,71000000,imu1_frame,0.03428912062007176,-0.008692491793304691,-0.7912281794716932,0.6104970637140162,-0.005859375,-0.013671875,0.001953125,0.004717499017715454,-0.008472323417663574,-0.16891002655029297
615,91000000,imu1_frame,0.036200791838317994,-0.0080147825824343,-0.7912017982184658,0.6104301601545434,-0.001953125,0.00390625,0.0,0.042363256216049194,-0.0207521915435791,-0.16649627685546875
615,111000000,imu1_frame,0.03433963338250761,-0.008644428765541369,-0.7912246727311665,0.610499451835897,-0.001953125,0.00390625,0.0,0.006070137023925781,-0.00833350419998169,-0.16885852813720703
615,131000000,imu1_frame,0.03269232109139449,-0.007515422716269908,-0.7912887803480465,0.6105217413478031,-0.001953125,0.00390625,0.0,-0.005896657705307007,0.028762400150299072,-0.1323099136352539
615,151000000,imu1_frame,0.03435602517835508,-0.008604894819479257,-0.7912217663773998,0.6105028548088184,-0.001953125,0.00390625,0.0,0.006792306900024414,-0.00791865587234497,-0.12978649139404297
615,171000000,imu1_frame,0.03242744916228342,-0.008753977853236922,-0.7912689264171932,0.6105450962043304,0.001953125,0.005859375,-0.001953125,-0.024791032075881958,0.012754619121551514,-0.13225364685058594
615,191000000,imu1_frame,0.034476495843353654,-0.008580338441476787,-0.7912407038524376,0.610471864702782,0.001953125,0.005859375,-0.001953125,0.00896647572517395,-0.008958876132965088,-0.12963294982910156
615,211000000,imu1_frame,0.03606268295335801,-0.007270399087259566,-0.7912509681329659,0.6103839198602481,0.001953125,0.005859375,-0.001953125,0.010088145732879639,-0.007566213607788086,-0.1317577362060547
615,231000000,imu1_frame,0.034433248572499804,-0.008385654690060614,-0.7912576446735139,0.6104550531643479,0.001953125,0.001953125,0.0,-0.028426915407180786,-0.0054239630699157715,-0.13366127014160156
615,251000000,imu1_frame,0.03599319145348684,-0.00729803915535424,-0.791266445344046,0.6103676279637358,-0.001953125,-0.009765625,-0.001953125,0.008696824312210083,-0.007155418395996094,-0.13184833526611328
615,271000000,imu1_frame,0.03391896613921061,-0.007147883448092207,-0.7913334488024362,0.6104013305233711,-0.001953125,-0.009765625,-0.001953125,0.017508983612060547,-0.0191802978515625,-0.13081836700439453
615,291000000,imu1_frame,0.034469370368457014,-0.009083571046060541,-0.7912828857196605,0.6104103095546634,-0.001953125,-0.009765625,-0.001953125,0.0028907358646392822,-0.016623318195343018,-0.1685314178466797
615,311000000,imu1_frame,0.03423952095406768,-0.007117957601341586,-0.7913194237455035,0.6104019655010179,0.0,-0.00390625,0.00390625,0.02281486988067627,0.01652204990386963,-0.1694622039794922
615,331000000,imu1_frame,0.03617901260299858,-0.007453629932584573,-0.7912422480646971,0.610386129696133,0.0,-0.00390625,0.00390625,0.009694516658782959,-0.01178830862045288,-0.13154125213623047
615,351000000,imu1_frame,0.03417282289078419,-0.007205028061125124,-0.791273482670303,0.610464234307894,0.0,-0.00390625,0.00390625,0.020705103874206543,-0.02312690019607544,-0.1695270538330078
615,371000000,imu1_frame,0.034305259412851785,-0.009224283101119881,-0.7911926041136065,0.610534458465546,0.0,-0.00390625,0.00390625,-0.0014093220233917236,-0.016908764839172363,-0.1296396255493164
615,391000000,imu1_frame,0.0342629001894782,-0.007241892211120787,-0.7912485296571654,0.6104910916493232,0.001953125,0.0,0.0,0.021637558937072754,0.014276564121246338,-0.13033390045166016
615,411000000,imu1_frame,0.03626247171775497,-0.007419778040443255,-0.791197302243475,0.6104398487659507,0.001953125,0.0,0.0,0.011349648237228394,-0.012292087078094482,-0.13143253326416016
615,431000000,imu1_frame,0.034283810034433676,-0.0073053658435832634,-0.7912474027179329,0.6104906221159662,0.001953125,0.0,0.0,-0.017859429121017456,0.01304548978805542,-0.17325687408447266
615,451000000,imu1_frame,0.036289367266043,-0.007434323294032311,-0.7911973770625987,0.6104379765298472,0.001953125,0.0,0.0,0.011592268943786621,-0.012836635112762451,-0.17045307159423828
615,471000000,imu1_frame,0.03431399655141785,-0.007173747295233313,-0.7912496885866985,0.6104875242802805,-0.001953125,0.001953125,0.0,-0.015819847583770752,0.014722585678100586,-0.17325401306152344
615,491000000,imu1_frame,0.03233593965374172,-0.0069047253990178244,-0.7912991986833242,0.6105344297719851,-0.001953125,0.001953125,0.0,-0.004116088151931763,0.0033894777297973633,-0.1719980239868164
615,511000000,imu1_frame,0.034319935024660894,-0.007138966957052841,-0.791248145392926,0.6104895982921774,-0.001953125,0.001953125,0.0,-0.015315026044845581,0.015189290046691895,-0.13419246673583984
615,531000000,imu1_frame,0.03233966988917883,-0.006906273015527697,-0.7912967868627547,0.6105373405821908,-0.001953125,0.001953125,0.0,-0.0040788352489471436,0.0033195912837982178,-0.13293075561523438
615,551000000,imu1_frame,0.034303849720770344,-0.007172395089078943,-0.791234064676252,0.6105083599254947,-0.001953125,0.0,0.001953125,0.023087680339813232,-0.024208784103393555,-0.13029861450195312
615,571000000,imu1_frame,0.03627095524841849,-0.007421393918937019,-0.7911685848158008,0.6104765442817848,-0.001953125,0.0,0.001953125,0.011435836553573608,-0.012440145015716553,-0.17048263549804688
615,591000000,imu1_frame,0.03459274064428741,-0.008511098477692273,-0.7911645524177501,0.6105649469917523,-0.001953125,0.0,0.001953125,0.011524289846420288,-0.00932610034942627,-0.1685619354248047
615,611000000,imu1_frame,0.03307349114428009,-0.009747155582382306,-0.7911733957018943,0.6106191899008055,0.001953125,0.00390625,-0.001953125,-0.026727676391601562,-0.010346531867980957,-0.17012977600097656
615,631000000,imu1_frame,0.03459987958802185,-0.008451932218282544,-0.7911880472723157,0.6105349187619755,-0.00390625,0.0,-0.001953125,0.012361288070678711,-0.008479416370391846,-0.16857147216796875
615,651000000,imu1_frame,0.03473377036859146,-0.0064265533194297515,-0.791250683035857,0.6104708192892633,-0.00390625,0.0,-0.001953125,-0.00040847063064575195,-0.01778090000152588,-0.17288494110107422
615,671000000,imu1_frame,0.03625893837664523,-0.007652641782731691,-0.791191695892064,0.6104444502270323,-0.00390625,0.0,-0.001953125,0.00851169228553772,-0.015853703022003174,-0.13136863708496094
615,691000000,imu1_frame,0.03471965483704143,-0.006448365338871942,-0.7912497594448444,0.6104725893362689,0.00390625,0.001953125,0.001953125,-0.0008876025676727295,0.021111249923706055,-0.1338367462158203
615,711000000,imu1_frame,0.03460988238794253,-0.004473161761099968,-0.7912913902011985,0.6104425301847886,0.00390625,0.001953125,0.001953125,0.0210152268409729,0.013925522565841675,-0.13440704345703125
615,731000000,imu1_frame,0.035528789496169555,-0.00628610764491854,-0.7912109733497472,0.6104779976531167,0.00390625,0.001953125,0.001953125,0.013535112142562866,0.013966977596282959,-0.1718282699584961
615,751000000,imu1_frame,0.03621756480586011,-0.008196492003851707,-0.791130208019761,0.6105195324287127,0.00390625,0.001953125,0.001953125,0.0013270378112792969,-0.02381455898284912,-0.13125896453857422
615,771000000,imu1_frame,0.03544829431633757,-0.006321433316834334,-0.7912007256855048,0.6104955934203076,-0.00390625,-0.00390625,0.0,0.011859804391860962,0.014369845390319824,-0.13286876678466797
615,791000000,imu1_frame,0.03347553500474033,-0.006863113796122371,-0.7912325106871134,0.6105599071810519,-0.00390625,-0.00390625,0.0,0.013960272073745728,-0.0095747709274292,-0.13148117065429688
615,811000000,imu1_frame,0.03498075718296814,-0.0056066150370699805,-0.7912300986898018,0.610491476944649,-0.00390625,-0.00390625,0.0,0.01317933201789856,-0.00805807113647461,-0.17274188995361328
615,831000000,imu1_frame,0.03447718551106441,-0.0075472994281040595,-0.791190691060507,0.6105502864873421,-0.00390625,-0.00390625,0.0,0.021259576082229614,0.006964445114135742,-0.1299571990966797
615,851000000,imu1_frame,0.03402633271773321,-0.009548004385277748,-0.7911353599729203,0.6106192647587847,-0.00390625,-0.009765625,0.001953125,-0.009640276432037354,-0.01863229274749756,-0.12989234924316406
615,871000000,imu1_frame,0.03321239432829005,-0.007709386931779591,-0.7911935626313268,0.6106146482576938,-0.00390625,-0.009765625,0.001953125,-0.00024321675300598145,-0.019552648067474365,-0.13158226013183594
615,891000000,imu1_frame,0.03267870206833847,-0.005786345759465238,-0.7912445039943616,0.6105986861536775,-0.00390625,-0.009765625,0.001953125,0.014490187168121338,0.016562968492507935,-0.13277721405029297
615,911000000,imu1_frame,0.033621660187616614,-0.007518935741290586,-0.791169287165885,0.6106260792145813,-0.00390625,-0.009765625,0.001953125,0.008341401815414429,0.017567098140716553,-0.1701669692993164
615,931000000,imu1_frame,0.03474663392956751,-0.009148904485109962,-0.7911123818525293,0.61061458241423,-0.001953125,-0.00390625,-0.001953125,0.006247401237487793,-0.021050333976745605,-0.16813278198242188
615,951000000,imu1_frame,0.033521017788115275,-0.007548002783117649,-0.7911960071867972,0.6105966321820852,-0.001953125,-0.00390625,-0.001953125,0.006460338830947876,-0.0207289457321167,-0.17029094696044922
615,971000000,imu1_frame,0.03217935949387572,-0.006037823630112824,-0.7912764512015357,0.6105813715486897,-0.001953125,-0.00390625,-0.001953125,0.003787904977798462,0.018640220165252686,-0.13335227966308594
615,991000000,imu1_frame,0.03364863944612153,-0.007491860065413988,-0.791217145868386,0.6105629117298808,0.005859375,0.01171875,-0.001953125,0.00912255048751831,-0.021364212036132812,-0.13107776641845703
616,11000000,imu1_frame,0.032222151733880794,-0.0061864045672646115,-0.7912790130351016,0.6105743074076768,0.00390625,0.01171875,0.0,0.002678781747817993,0.015835702419281006,-0.13326263427734375
616,31000000,imu1_frame,0.03363466283156379,-0.007663842537435043,-0.7912078233488413,0.6105736280297056,0.00390625,0.01171875,0.0,0.006846100091934204,0.015199542045593262,-0.1310443878173828
616,51000000,imu1_frame,0.032599551159848396,-0.005992650735336097,-0.7912707639575683,0.6105668968322364,0.00390625,0.01171875,0.0,0.010824203491210938,0.014333933591842651,-0.17189311981201172
616,71000000,imu1_frame,0.03352657086925334,-0.007750157272497268,-0.7912184404576987,0.6105647251419687,-0.001953125,-0.005859375,-0.001953125,0.004152625799179077,-0.02390366792678833,-0.17022323608398438
616,91000000,imu1_frame,0.03239929450607584,-0.0060801851769287105,-0.7912992028021325,0.6105398338425039,-0.001953125,-0.005859375,-0.001953125,0.0067033469676971436,0.015383780002593994,-0.13306522369384766
616,111000000,imu1_frame,0.03357999635230023,-0.007665593429271512,-0.7912458554646644,0.6105273284074579,-0.001953125,-0.005859375,-0.001953125,0.006011605262756348,0.015849649906158447,-0.17017841339111328
616,131000000,imu1_frame,0.032276889225345794,-0.006123489785201674,-0.791327106586553,0.6105097179211313,-0.001953125,-0.005859375,-0.001953125,0.004314392805099487,0.016190528869628906,-0.133209228515625
616,151000000,imu1_frame,0.03358056315895053,-0.007634922461951401,-0.7912605106552233,0.6105086879107973,0.0,-0.001953125,0.0,0.006398826837539673,-0.022735178470611572,-0.13112449645996094
616,171000000,imu1_frame,0.034737740288585575,-0.009262739112313656,-0.7911909212899172,0.6105116027826104,0.0,-0.001953125,0.0,0.004823148250579834,-0.022648751735687256,-0.1290416717529297
616,191000000,imu1_frame,0.03359023974306161,-0.007631137187689549,-0.7912617264131352,0.6105066271982077,0.0,-0.001953125,0.0,0.006595343351364136,0.016270875930786133,-0.13111305236816406
616,211000000,imu1_frame,0.032273894531633145,-0.006128848697101053,-0.7913295925388515,0.6105066002245221,0.0,-0.001953125,0.0,0.004206180572509766,0.016144871711730957,-0.1332111358642578
616,231000000,imu1_frame,0.03356094934139627,-0.007603019924091153,-0.7912632993712563,0.6105065501986461,-0.00390625,-0.001953125,0.0,0.006478309631347656,-0.022006690502166748,-0.13115978240966797
616,251000000,imu1_frame,0.032228700627835366,-0.00606370975706004,-0.7913313196801437,0.6105073994417315,-0.00390625,-0.001953125,0.0,0.004285484552383423,0.017691075801849365,-0.1332836151123047
616,271000000,imu1_frame,0.03350392081620366,-0.007547146299236836,-0.7912651686345217,0.61050795308371,-0.00390625,-0.001953125,0.0,0.006264060735702515,-0.020463168621063232,-0.13125133514404297
616,291000000,imu1_frame,0.032240698754071775,-0.005998776490643916,-0.7913435313478622,0.6104915784991302,0.0,0.001953125,-0.001953125,0.00525549054145813,0.01856088638305664,-0.1332845687866211
