timestamp_sec,timestamp_nsec,frame_id,orientation_x,orientation_y,orientation_z,orientation_w,angular_velocity_x,angular_velocity_y,angular_velocity_z,linear_acceleration_x,linear_acceleration_y,linear_acceleration_z
553,466000000,imu1_frame,0.37612994575276826,-0.013127131887644573,-0.8941567792719061,0.24256462313889876,0.021484375,0.00390625,-0.0078125,0.01963663101196289,0.02622818946838379,-0.022254467010498047
553,491000000,imu1_frame,0.37668154217554,-0.01532244982085984,-0.8936159019376231,0.2435710535345952,-0.0078125,0.009765625,0.013671875,0.014589309692382812,-0.022007465362548828,-0.012914657592773438
553,516000000,imu1_frame,0.37614001340445113,-0.013444358219343644,-0.8940729173310444,0.24284060213095454,0.01953125,0.00390625,0.009765625,0.01766204833984375,0.018615245819091797,-0.021923542022705078
553,541000000,imu1_frame,0.37509703425072205,-0.015548214774718966,-0.8942393719151105,0.2437137945018714,0.01953125,0.00390625,0.009765625,0.029469966888427734,-0.01965641975402832,-0.036045074462890625
553,566000000,imu1_frame,0.3753668864690171,-0.013135381597456376,-0.8943693580316912,0.24296216517562086,-0.01171875,0.0078125,0.009765625,0.04680347442626953,0.026723384857177734,-0.033449649810791016
553,591000000,imu1_frame,0.3751932323282252,-0.015349071527659503,-0.8941568918888103,0.2438809076292769,-0.00390625,0.009765625,-0.001953125,0.031423091888427734,-0.017827510833740234,-0.03476428985595703
553,615000000,imu1_frame,0.375007533748919,-0.013272730002663524,-0.8945124380068352,0.2429828852427625,0.009765625,0.005859375,-0.005859375,0.04092979431152344,0.02583456039428711,-0.03864288330078125
553,640000000,imu1_frame,0.37670933734273726,-0.01456387287846173,-0.8937304323545268,0.24315403152933002,0.009765625,0.005859375,-0.005859375,0.01961231231689453,0.03322267532348633,-0.08327627182006836
553,665000000,imu1_frame,0.37667130034099,-0.012318885958468181,-0.8940493526927396,0.2421626137492396,0.009765625,0.005859375,-0.005859375,-0.08492565155029297,-0.15064024925231934,0.0634450912475586
553,690000000,imu1_frame,0.3765436207210123,-0.010337168946423518,-0.8944492645862309,0.24097418474524251,0.033203125,-0.005859375,-0.013671875,-0.07459306716918945,-0.10673642158508301,0.06068706512451172
553,715000000,imu1_frame,0.3764161361040881,-0.008267319249781782,-0.894813226037412,0.23989963405851647,0.0234375,-0.001953125,-0.0078125,-0.06422042846679688,-0.062099456787109375,0.058058738708496094
553,740000000,imu1_frame,0.37836000078299137,-0.00879678391411044,-0.8940677400042368,0.23960217587488597,0.0234375,-0.001953125,-0.0078125,0.0008325576782226562,-3.6954879760742188e-06,-0.030300140380859375
553,766000000,imu1_frame,0.3772856974360282,-0.007080917571997324,-0.8947628405940403,0.23875682651734248,0.0234375,-0.001953125,-0.0078125,-0.04363441467285156,-0.11121702194213867,0.11349344253540039
553,790000000,imu1_frame,0.3763611756369896,-0.00565381151758156,-0.8953897093483368,0.23790243437503436,0.0390625,0.0,-0.0078125,-0.048442840576171875,-0.07572424411773682,0.09951639175415039
553,816000000,imu1_frame,0.37543498433691813,-0.0034876634303109854,-0.8959457016597392,0.23731352346036325,-0.01171875,0.01953125,0.0,-0.05045652389526367,-0.0292208194732666,0.08551931381225586
553,841000000,imu1_frame,0.37608654693913995,-0.005545048168589668,-0.8954277750771433,0.2381958464637852,-0.01171875,0.01953125,0.0,0.025587081909179688,0.1518700122833252,-0.02565908432006836
553,866000000,imu1_frame,0.3765594006130468,-0.007969217298153721,-0.8950124158546157,0.23893991891620447,0.015625,0.001953125,-0.001953125,0.019403934478759766,0.10182559490203857,-0.018060684204101562
553,890000000,imu1_frame,0.3769431593407672,-0.010311850476782696,-0.894632555498485,0.23966666645196094,0.015625,0.001953125,-0.001953125,0.09035730361938477,0.28423917293548584,-0.07797718048095703
553,916000000,imu1_frame,0.3776205445621302,-0.012305643850814847,-0.8940098154724516,0.24082721044958763,-0.02734375,0.037109375,0.01171875,0.08798742294311523,0.23778283596038818,-0.06710529327392578
553,940000000,imu1_frame,0.37711713871244884,-0.009988747710200162,-0.8943632509198786,0.24041061543231432,-0.02734375,0.037109375,0.01171875,-0.02436685562133789,-0.09918057918548584,0.07291221618652344
553,965000000,imu1_frame,0.3769752146797809,-0.007392328003456035,-0.8945969632104909,0.23985686235417575,-0.02734375,0.037109375,0.01171875,-0.012854576110839844,-0.0490725040435791,0.02696514129638672
553,991000000,imu1_frame,0.3762718897032992,-0.005024776094829536,-0.8951605712594085,0.238917911230687,-0.005859375,0.009765625,-0.017578125,-0.009807586669921875,0.0024743080139160156,0.016037940979003906
554,16000000,imu1_frame,0.37460039330829653,-0.004673567609997096,-0.8958196034044543,0.2390814531814428,-0.017578125,0.0,-0.00390625,-0.03256702423095703,0.01515805721282959,-0.00854635238647461
554,40000000,imu1_frame,0.37565186621801866,-0.006244369406106708,-0.8952071287223509,0.23968913188195334,-0.017578125,0.0,-0.00390625,-0.06522464752197266,0.247908353805542,-0.06704854965209961
554,65000000,imu1_frame,0.37742712708075216,-0.00671092566141852,-0.8944298459334498,0.23978944497996982,-0.017578125,0.0,-0.00390625,-0.0772705078125,0.03938865661621094,0.033411502838134766
554,90000000,imu1_frame,0.37929482481090043,-0.007909737471633909,-0.893625121228848,0.2398062022415705,0.03125,-0.001953125,0.00390625,-0.056203365325927734,0.009674787521362305,0.061380863189697266
554,115000000,imu1_frame,0.3784900081599051,-0.006118476125788325,-0.8941693246109358,0.2391005999528989,0.01171875,-0.009765625,0.00390625,-0.05766487121582031,0.049866318702697754,0.04900646209716797
554,141000000,imu1_frame,0.37791924130168014,-0.008635236056193072,-0.8941332978207222,0.24005858759989446,0.01171875,-0.009765625,0.00390625,-0.005637168884277344,0.0756995677947998,0.045189857482910156
554,166000000,imu1_frame,0.3774017323026841,-0.010691994970487456,-0.8939529122797588,0.2414576656994394,-0.029296875,0.001953125,0.029296875,-0.025956153869628906,0.03189682960510254,0.03832578659057617
554,191000000,imu1_frame,0.37922658605621007,-0.010106122368464374,-0.8931629754706075,0.24154701812963103,-0.029296875,0.001953125,0.029296875,0.0027556419372558594,-0.0021206140518188477,-0.013077259063720703
554,216000000,imu1_frame,0.38127169713547016,-0.010272340468988917,-0.8923569429068529,0.24129952016252162,0.03125,-0.005859375,0.0234375,0.03172636032104492,-0.012674689292907715,0.017394065856933594
554,241000000,imu1_frame,0.3804586001507627,-0.012831836065667927,-0.8923910274444488,0.2423321103179414,0.03125,-0.005859375,0.0234375,0.08366060256958008,0.13021230697631836,0.04162931442260742
554,269000000,imu1_frame,0.3783792581242232,-0.01354960103692454,-0.8931413907353521,0.2427838575532231,0.03125,-0.005859375,0.0234375,0.08851480484008789,-0.03225874900817871,-0.02398538589477539
554,290000000,imu1_frame,0.37645680118879926,-0.012385514438844752,-0.8937503970332057,0.24359208458767587,-0.115234375,-0.005859375,0.025390625,0.06474876403808594,-0.008902788162231445,-0.0529475212097168
554,316000000,imu1_frame,0.37780897025567356,-0.010105153156263045,-0.893148404338986,0.24381180385854842,-0.115234375,-0.005859375,0.025390625,-0.09675884246826172,0.023022174835205078,0.04016590118408203
554,341000000,imu1_frame,0.37828125410858726,-0.011001302889020959,-0.8925216123335178,0.24533127734220175,-0.115234375,-0.005859375,0.025390625,-0.023501873016357422,0.033080101013183594,0.012369632720947266
554,366000000,imu1_frame,0.37702383363382547,-0.007794710707860137,-0.8930538301001285,0.24545290363025873,-0.115234375,-0.005859375,0.025390625,-0.026105880737304688,-0.01922154426574707,0.03171253204345703
554,391000000,imu1_frame,0.37607826216191076,-0.00542957632057113,-0.8935175943773591,0.24527936922691515,-0.0390625,-0.017578125,0.037109375,-0.02784252166748047,0.02783071994781494,0.01717853546142578
554,416000000,imu1_frame,0.3770070803150227,-0.007440014894638208,-0.8928518266025743,0.24622331998240124,-0.00390625,-0.0234375,0.03125,-0.026353836059570312,-0.01858055591583252,0.03133535385131836
554,441000000,imu1_frame,0.37760543966959775,-0.009666105734529657,-0.8922838042037744,0.24728588938210544,-0.00390625,-0.0234375,0.03125,0.04711103439331055,0.12335777282714844,-0.10753011703491211
554,465000000,imu1_frame,0.3783700400343699,-0.011470753223183448,-0.8916863613346953,0.24819340771779852,-0.01953125,-0.009765625,0.017578125,0.04709959030151367,0.08160829544067383,-0.09548664093017578
554,491000000,imu1_frame,0.37747932524162525,-0.009128247913607527,-0.8922265429937597,0.24770512728354965,-0.01953125,-0.009765625,0.017578125,-0.031063556671142578,-0.25256168842315674,0.07402467727661133
554,515000000,imu1_frame,0.3768506490500177,-0.0077859632381972795,-0.8927958874931692,0.24665455674347106,0.064453125,-0.017578125,-0.001953125,-0.031175613403320312,-0.21845495700836182,0.06431055068969727
554,540000000,imu1_frame,0.3770284873128158,-0.010854423820605037,-0.8925367147562566,0.2472041950498434,0.064453125,-0.017578125,-0.001953125,0.03320646286010742,0.18018126487731934,-0.0061798095703125
554,565000000,imu1_frame,0.37641235463646106,-0.009443006511523225,-0.8931169695379367,0.24610292080434623,0.064453125,-0.017578125,-0.001953125,-0.044350624084472656,-0.4326663017272949,0.10138416290283203
554,591000000,imu1_frame,0.3757165755262775,-0.009130997233658976,-0.8939835446457997,0.2440227482569151,0.169921875,-0.052734375,-0.037109375,-0.048261165618896484,-0.4087495803833008,0.09104061126708984
554,615000000,imu1_frame,0.37542441566062545,-0.008499955349838039,-0.8946042270601701,0.24221382250194645,0.1484375,-0.017578125,-0.03515625,-0.04550457000732422,-0.3831559419631958,0.0865325927734375
554,641000000,imu1_frame,0.37691198627670414,-0.0119934989794308,-0.8940856462971176,0.2416699560736612,0.1484375,-0.017578125,-0.03515625,0.03834724426269531,0.08801031112670898,-0.1167764663696289
554,665000000,imu1_frame,0.3766412566579476,-0.01135441244888372,-0.8946974480148636,0.23985186598555563,0.1484375,-0.017578125,-0.03515625,0.002532482147216797,-0.308182954788208,0.02349710464477539
554,691000000,imu1_frame,0.37605841676490054,-0.01095682068379299,-0.8953908204972189,0.2381917165438307,0.154296875,-0.04296875,-0.005859375,-0.00034046173095703125,-0.2864431142807007,0.014750957489013672
554,715000000,imu1_frame,0.3756077383884844,-0.010689739682201532,-0.8960256361124675,0.23652191390537705,0.16796875,-0.04296875,-0.01171875,-0.0019788742065429688,-0.267541766166687,0.008013725280761719
554,740000000,imu1_frame,0.3756925133657213,-0.014959726786994648,-0.8959381379250327,0.23648719835718518,0.16796875,-0.04296875,-0.01171875,0.057236671447753906,0.34897124767303467,0.015297889709472656
554,766000000,imu1_frame,0.37581203162839316,-0.016348546816700765,-0.8956461774464615,0.2373098538322075,-0.06640625,0.021484375,-0.037109375,0.050502777099609375,0.3181459903717041,0.01790332794189453
554,790000000,imu1_frame,0.37559137470000664,-0.013214051573053942,-0.8960319762593816,0.23639628933782109,-0.06640625,0.021484375,-0.037109375,-0.05292558670043945,-0.15841293334960938,0.04801321029663086
554,815000000,imu1_frame,0.375522039421783,-0.011444754894180101,-0.8964942608829404,0.23484091572353263,0.0625,0.005859375,-0.037109375,-0.0422210693359375,-0.11579024791717529,0.046142578125
554,840000000,imu1_frame,0.3775279684461207,-0.010991562497520029,-0.8959924857814512,0.23355788151544798,0.0625,0.005859375,-0.037109375,0.03058338165283203,-0.029337167739868164,-0.06908655166625977
554,866000000,imu1_frame,0.37616769160720415,-0.01289293873090192,-0.896543453506786,0.23354116531334268,0.0625,0.005859375,-0.037109375,-0.0368342399597168,0.05680990219116211,0.13836336135864258
554,890000000,imu1_frame,0.37452040702246253,-0.014376777789646506,-0.8972437117792983,0.2334127131426727,0.05078125,-0.01953125,-0.046875,-0.06731414794921875,0.03906905651092529,0.11498165130615234
554,915000000,imu1_frame,0.37277580861269327,-0.014787820885161163,-0.8977650583948551,0.2341739028839547,-0.0546875,0.005859375,-0.009765625,-0.0962057113647461,0.03412163257598877,0.08973264694213867
554,941000000,imu1_frame,0.3738284024190857,-0.01603644782621168,-0.8971050081899632,0.23494204001497315,-0.0546875,0.005859375,-0.009765625,-0.010470390319824219,0.19341659545898438,-0.09340620040893555
554,966000000,imu1_frame,0.3752650219331842,-0.016725665976326607,-0.8963636150462257,0.23543297354533138,-0.0546875,0.005859375,-0.009765625,-0.03311443328857422,0.09715890884399414,-0.06802701950073242
554,991000000,imu1_frame,0.3764700280776292,-0.019195421157500135,-0.895785270938306,0.23552197803135297,0.076171875,-0.04296875,0.005859375,-0.02765512466430664,0.04790186882019043,-0.04858589172363281
555,15000000,imu1_frame,0.3777345510592435,-0.020872560446153213,-0.8952555257860123,0.23536883546065318,0.05078125,-0.044921875,-0.01171875,-0.017086505889892578,0.014061450958251953,-0.028630733489990234
555,40000000,imu1_frame,0.3772240743678805,-0.023827491850595343,-0.895256308970469,0.23590334800078164,0.05078125,-0.044921875,-0.01171875,0.07347249984741211,0.03496074676513672,-0.06871747970581055
555,65000000,imu1_frame,0.3769406087066841,-0.026143226981233572,-0.8949495049367144,0.23727134846915643,-0.021484375,-0.02734375,0.03515625,0.05486774444580078,-0.014177322387695312,-0.07063722610473633
555,91000000,imu1_frame,0.3758666047635934,-0.02391640340756394,-0.8955346296856036,0.23700216898881807,-0.021484375,-0.02734375,0.03515625,0.05086040496826172,-0.08182740211486816,-0.057358741760253906
555,116000000,imu1_frame,0.37523018382401213,-0.023151745401447217,-0.8961109701645691,0.23590556369653365,0.109375,-0.0546875,0.0234375,0.04797649383544922,-0.057708024978637695,-0.06740999221801758
555,141000000,imu1_frame,0.3732945313279485,-0.023544421153856864,-0.8970361779154611,0.23542079055172294,0.109375,-0.0546875,0.0234375,-0.015891551971435547,-0.05255913734436035,0.06479644775390625
555,166000000,imu1_frame,0.371767587400387,-0.02684187716170057,-0.8974254933306691,0.23599970023103184,0.109375,-0.0546875,0.0234375,-0.020172595977783203,0.044585466384887695,0.08095550537109375
555,190000000,imu1_frame,0.37014640065805593,-0.02835611937955401,-0.8978360089454607,0.23680809448687584,0.001953125,-0.017578125,0.009765625,-0.05306863784790039,0.019422292709350586,0.059081077575683594
555,215000000,imu1_frame,0.3713119099784431,-0.02678978457992131,-0.897592783875053,0.2360867791422349,0.001953125,-0.017578125,0.009765625,-0.026822566986083984,-0.10543990135192871,-0.12105798721313477
555,241000000,imu1_frame,0.37109819851007725,-0.024505156666131626,-0.8979604057506236,0.23527161763272458,0.001953125,-0.017578125,0.009765625,-0.052086830139160156,-0.05864572525024414,0.033724308013916016
555,266000000,imu1_frame,0.37270884250131875,-0.02536202466564033,-0.8972309693883576,0.23541765863378794,0.001953125,-0.017578125,0.009765625,-0.03320169448852539,0.031505584716796875,-0.05923604965209961
555,291000000,imu1_frame,0.37438019327951144,-0.027060865055737897,-0.8965441334336135,0.23519310633647808,0.080078125,-0.03515625,0.013671875,-0.016614913940429688,-0.003973484039306641,-0.03308725357055664
555,315000000,imu1_frame,0.37602345689477407,-0.027392789772511455,-0.8959696834101464,0.23472179562900639,0.05078125,-0.03125,0.013671875,0.006689548492431641,-0.01357412338256836,-0.008629798889160156
555,340000000,imu1_frame,0.3751445275304624,-0.030301980571483006,-0.8960260305946508,0.23555408282215234,0.05078125,-0.03125,0.013671875,0.013091564178466797,0.05053591728210449,0.020836830139160156
555,366000000,imu1_frame,0.3743776254386182,-0.03310670906465027,-0.8959571816694235,0.23665601196849842,0.03125,-0.013671875,0.025390625,-0.01447153091430664,-0.0030765533447265625,0.013077735900878906
555,391000000,imu1_frame,0.3744080383968697,-0.031360785280274465,-0.8962093767810835,0.2358895396156317,0.03125,-0.021484375,0.025390625,-0.003547191619873047,0.032814979553222656,0.011322975158691406
555,415000000,imu1_frame,0.37420054454248247,-0.0340137601243637,-0.8959198554836565,0.23694857909777825,0.021484375,-0.0234375,0.029296875,-0.02225351333618164,-0.020251989364624023,0.011668682098388672
555,440000000,imu1_frame,0.37258475243397926,-0.032971645565390166,-0.8966730080674553,0.23679313639901317,0.021484375,-0.0234375,0.029296875,-0.0010333061218261719,-0.07201170921325684,0.06486129760742188
555,466000000,imu1_frame,0.371651054030348,-0.031226355933298835,-0.8972582895661437,0.23627943316779895,0.021484375,-0.0234375,0.029296875,-0.004772186279296875,-0.07278084754943848,0.010017871856689453
555,490000000,imu1_frame,0.37088502327811335,-0.029514635243479307,-0.8978346140268416,0.23551261467214507,0.025390625,-0.03515625,0.009765625,-0.005688190460205078,-0.03399205207824707,-0.003136157989501953
555,516000000,imu1_frame,0.3712993416889614,-0.02769599699974374,-0.8979779762452496,0.2345320549307069,0.025390625,-0.03515625,0.009765625,0.011494159698486328,-0.03208804130554199,-0.03823518753051758
555,541000000,imu1_frame,0.3722882677237641,-0.029802953012569026,-0.8973849034739629,0.23497566836588799,0.025390625,-0.03515625,0.009765625,-0.02446460723876953,-0.0022611618041992188,0.017560482025146484
555,565000000,imu1_frame,0.370161227692103,-0.03014031662272161,-0.8982035788645995,0.23516495857627825,0.025390625,-0.03515625,0.009765625,-0.018367290496826172,-0.0002906322479248047,0.06134033203125
555,591000000,imu1_frame,0.368123005495172,-0.03018823850384245,-0.8990833761218792,0.23499618265520816,0.044921875,-0.025390625,0.001953125,-0.04793882369995117,0.008931398391723633,0.03198432922363281
555,615000000,imu1_frame,0.3697164237729795,-0.02959557981014861,-0.89864512672141,0.234245178964436,0.01953125,-0.025390625,-0.009765625,-0.020038127899169922,0.017740964889526367,0.05423402786254883
555,640000000,imu1_frame,0.3692888652205153,-0.0275522413283803,-0.8991583467335988,0.23319707442682083,0.01953125,-0.025390625,-0.009765625,-0.01386880874633789,-0.011356353759765625,0.006735324859619141
555,666000000,imu1_frame,0.3693210401335339,-0.025530238331000068,-0.8995795675730154,0.2317472283557965,0.02734375,-0.05078125,-0.029296875,-0.000335693359375,0.03429698944091797,0.005096435546875
555,691000000,imu1_frame,0.36908887213531766,-0.028100213285339296,-0.8995083579973153,0.2320958775423877,0.025390625,-0.04296875,-0.033203125,-0.016768932342529297,-0.012317419052124023,0.0044384002685546875
555,716000000,imu1_frame,0.369821586310706,-0.026183210128966083,-0.899636769284767,0.23065150586294159,0.02734375,-0.021484375,-0.03515625,0.006470680236816406,0.028443098068237305,0.012983322143554688
555,741000000,imu1_frame,0.36876146413084426,-0.028458988172985904,-0.8999083065955661,0.23101971406039418,0.02734375,-0.021484375,-0.03515625,0.1356034278869629,0.1427292823791504,0.00012302398681640625
555,765000000,imu1_frame,0.36772298386342184,-0.03062875936092891,-0.9001725292700617,0.23136789705171182,0.02734375,-0.021484375,-0.03515625,-0.007958412170410156,0.028464794158935547,0.026741981506347656
555,791000000,imu1_frame,0.36643442549552724,-0.03344350266091427,-0.9005145586558438,0.23169133257505165,0.046875,-0.05859375,-0.03125,-0.04112577438354492,-0.017774581909179688,0.011774063110351562
555,815000000,imu1_frame,0.3655846789125715,-0.03616516109875563,-0.9006787267104897,0.23198654038168717,0.046875,-0.05859375,-0.03125,-0.028391361236572266,-0.024994373321533203,0.003315448760986328
555,840000000,imu1_frame,0.36412876927025334,-0.038777789641523494,-0.9010830476340297,0.2322840151340971,0.046875,-0.05859375,-0.03125,0.014916419982910156,0.011307954788208008,-0.013621330261230469
555,866000000,imu1_frame,0.3646550876858473,-0.04136952109289583,-0.900760369541737,0.23226275295967025,0.046875,-0.05859375,-0.03125,-0.02897930145263672,0.03791975975036621,-0.0020852088928222656
555,891000000,imu1_frame,0.3658177998815651,-0.04312426932835228,-0.9002410673002295,0.2321285321343561,0.02734375,-0.03515625,-0.029296875,-0.020082950592041016,0.003145933151245117,0.017411231994628906
555,916000000,imu1_frame,0.36693332041645427,-0.04179980837468235,-0.9002268460026753,0.23066066011366293,0.046875,-0.041015625,-0.03125,0.006687164306640625,0.03191804885864258,0.0312042236328125
555,941000000,imu1_frame,0.36517054754894146,-0.040874116078879266,-0.9012194319324938,0.22974619331960616,0.046875,-0.041015625,-0.03125,0.026769638061523438,-0.05141043663024902,0.008409976959228516
555,965000000,imu1_frame,0.363659272085554,-0.03963611676342203,-0.9021210601463934,0.22881980883321415,0.03515625,-0.037109375,-0.03125,0.012828826904296875,-0.016926050186157227,-0.015070915222167969
555,991000000,imu1_frame,0.3630424240022843,-0.037473969044887624,-0.9027637271475901,0.2276259057426461,0.015625,-0.029296875,-0.025390625,0.017043113708496094,0.0319671630859375,-0.02709817886352539
556,16000000,imu1_frame,0.3633814375236409,-0.039549742225266235,-0.9024075029576413,0.22814567135696867,-0.0078125,-0.025390625,-0.01953125,0.010815143585205078,-0.00957179069519043,-0.019176959991455078
556,41000000,imu1_frame,0.3644744352605586,-0.03761492945917662,-0.9023173913280714,0.227083307246882,-0.0078125,-0.025390625,-0.01953125,0.038867950439453125,0.027315616607666016,-0.006542682647705078
556,65000000,imu1_frame,0.3633278959628699,-0.039522770699763884,-0.9025294848541028,0.2277527597646093,-0.0078125,-0.025390625,-0.01953125,0.04635429382324219,0.03288722038269043,-0.02386951446533203
556,91000000,imu1_frame,0.3624299789907383,-0.04192086201997921,-0.9025961097375365,0.22848941844851356,0.005859375,-0.025390625,-0.013671875,0.019699573516845703,-0.01069331169128418,-0.03279304504394531
556,116000000,imu1_frame,0.36029157804607614,-0.041665258872484214,-0.9034777729787157,0.22843357617823454,0.005859375,-0.025390625,-0.013671875,-0.01059579849243164,0.003028392791748047,0.01862621307373047
556,141000000,imu1_frame,0.3604215668047266,-0.03944671452535472,-0.9037989791204258,0.22734919449177118,0.005859375,-0.025390625,-0.013671875,0.004654884338378906,-0.029085397720336914,-0.026049137115478516
556,165000000,imu1_frame,0.3589963188214363,-0.041275542261778896,-0.9041302698603599,0.2279614612294951,0.005859375,-0.025390625,-0.013671875,0.012270927429199219,-0.02057337760925293,-0.039287567138671875
556,191000000,imu1_frame,0.36066608537075606,-0.03972529737345129,-0.9038155543543431,0.22684646640200723,0.009765625,-0.001953125,-0.0234375,0.04727506637573242,0.007511615753173828,-0.01827859878540039
556,215000000,imu1_frame,0.3590528200585384,-0.04121250677888729,-0.9042713174302357,0.22732352752409268,0.005859375,-0.01953125,-0.01953125,0.015060901641845703,-0.015349864959716797,-0.03859424591064453
556,241000000,imu1_frame,0.36040518145255446,-0.042717607352658296,-0.9036499796963916,0.22737639587020983,0.005859375,-0.01953125,-0.01953125,-0.011286258697509766,0.10455703735351562,-0.13823270797729492
556,265000000,imu1_frame,0.36193894686158057,-0.0438141777369899,-0.9028343927034422,0.2279705593399467,-0.025390625,0.015625,0.017578125,0.004656791687011719,0.07486391067504883,-0.11472034454345703
556,291000000,imu1_frame,0.3635564566836671,-0.04525449983435135,-0.9019734928293835,0.2285225399857125,-0.0078125,0.009765625,0.015625,0.020174503326416016,0.0390779972076416,-0.08927536010742188
556,316000000,imu1_frame,0.36518847486363304,-0.04714039254467194,-0.901099033383656,0.22898841292202693,0.03125,0.0078125,0.025390625,0.033854007720947266,-0.0039825439453125,-0.0626211166381836
556,341000000,imu1_frame,0.36440062947674895,-0.04563452871380308,-0.9016051240479424,0.2285560572737302,0.03125,0.0078125,0.025390625,-0.04343605041503906,-0.12367653846740723,0.11875677108764648
556,365000000,imu1_frame,0.36286099364841057,-0.04701883416515023,-0.9019676566137494,0.22929342542894657,0.03125,0.0078125,0.025390625,0.03842878341674805,0.005581855773925781,0.025160789489746094
556,391000000,imu1_frame,0.36071032481916493,-0.04738411441915037,-0.9025677129997425,0.23024841089566725,-0.033203125,-0.0078125,0.025390625,0.0022268295288085938,0.0014884471893310547,-0.004580020904541016
556,416000000,imu1_frame,0.3600023214497794,-0.04493764103409407,-0.9030509121815125,0.22995214062321515,-0.033203125,-0.0078125,0.025390625,-0.03468179702758789,-0.22002243995666504,0.05914449691772461
556,441000000,imu1_frame,0.36023462135842677,-0.04241131990039616,-0.9031974186698496,0.22949231017003097,-0.033203125,-0.0078125,0.025390625,-0.05299186706542969,-0.13428378105163574,-0.02003335952758789
556,466000000,imu1_frame,0.3615391940311356,-0.04061248878218663,-0.9028464877979674,0.2291468009925261,-0.033203125,-0.0078125,0.025390625,-0.06318902969360352,-0.027521371841430664,-0.008465766906738281
556,491000000,imu1_frame,0.3627190017162977,-0.03878762248344819,-0.902593491336263,0.2285944783528886,-0.041015625,-0.025390625,0.001953125,-0.035572052001953125,0.003508329391479492,0.0054035186767578125
556,516000000,imu1_frame,0.36451288700822854,-0.03822067507810783,-0.9020008678236138,0.22817530463866564,-0.00390625,-0.01171875,0.00390625,-0.005308628082275391,0.008928537368774414,0.03004598617553711
556,541000000,imu1_frame,0.3624512764080316,-0.03819086655908294,-0.9027560342927226,0.22847772865146385,-0.00390625,-0.01171875,0.00390625,0.07697439193725586,-0.023154258728027344,0.004651546478271484
556,565000000,imu1_frame,0.3604722448376617,-0.03830836107556276,-0.9035364140651712,0.2285042201615816,0.015625,-0.017578125,-0.01171875,0.047003746032714844,-0.01715874671936035,-0.02313995361328125
556,591000000,imu1_frame,0.35832703343565414,-0.038207736595411705,-0.9044111870966647,0.22843447775644837,0.009765625,-0.01953125,-0.017578125,0.015750408172607422,-0.005967140197753906,-0.053429603576660156
556,616000000,imu1_frame,0.3602680129217331,-0.038530084611543086,-0.903756677566085,0.22791722006018966,0.017578125,-0.0078125,-0.021484375,0.044304847717285156,-0.016160011291503906,-0.025722980499267578
556,641000000,imu1_frame,0.3616491497804372,-0.036979158373130885,-0.9035532248276771,0.22679066165212208,0.017578125,-0.0078125,-0.021484375,-0.03827190399169922,-0.025873661041259766,-0.008514881134033203
556,666000000,imu1_frame,0.36012455897522766,-0.03863090035625627,-0.9039842048835331,0.22722348664178416,0.017578125,-0.0078125,-0.021484375,0.043532371520996094,0.026440858840942383,0.011506080627441406
556,690000000,imu1_frame,0.35857160817848366,-0.040325559138972886,-0.9044564094234936,0.22750572419433093,0.02734375,-0.01953125,-0.029296875,0.01164865493774414,0.001043558120727539,-0.007695198059082031
556,715000000,imu1_frame,0.3566408562140667,-0.04143107525663596,-0.9051455270833557,0.22760127522263662,0.02734375,-0.01953125,-0.029296875,0.01639556884765625,-0.01114344596862793,-0.03291797637939453
556,741000000,imu1_frame,0.35848095571017974,-0.040959182025851366,-0.9046929362587725,0.22659311746911037,0.02734375,-0.01953125,-0.029296875,-0.02952718734741211,-0.0035195350646972656,-0.011899948120117188
556,765000000,imu1_frame,0.3570748142214636,-0.03965779685478679,-0.9055127717268003,0.22576859045708544,0.02734375,-0.01953125,-0.029296875,-0.00312042236328125,-0.008252382278442383,0.00938558578491211
556,791000000,imu1_frame,0.35572528706534146,-0.03758237231009822,-0.9063649698409458,0.22483244178509265,-0.0078125,-0.025390625,-0.03515625,-0.01123189926147461,0.04032135009765625,-0.012549400329589844
556,815000000,imu1_frame,0.35659369171072836,-0.03916822713844571,-0.9059329564081855,0.22492724936847816,-0.0078125,-0.021484375,-0.0390625,-0.005971431732177734,0.008104562759399414,0.00189208984375
556,840000000,imu1_frame,0.3579532292941371,-0.0402548558421934,-0.9053903028594945,0.22476083223510213,-0.0078125,-0.021484375,-0.0390625,0.048709869384765625,-0.015519142150878906,-0.055562496185302734
556,865000000,imu1_frame,0.35699201505171924,-0.04181237991070651,-0.9056216758975049,0.22507289090450294,-0.013671875,-0.01953125,-0.044921875,0.02630329132080078,-0.041260719299316406,-0.06646060943603516
556,890000000,imu1_frame,0.3578424125858113,-0.039554507547441865,-0.9056666236276707,0.22394690338180642,-0.029296875,-0.03125,-0.03515625,0.05240774154663086,0.0028345584869384766,-0.058197021484375
556,915000000,imu1_frame,0.3576430349839405,-0.04135636212359611,-0.9054872166513513,0.22466421904781952,-0.041015625,-0.017578125,-0.025390625,0.03917694091796875,-0.03306841850280762,-0.05812788009643555
556,940000000,imu1_frame,0.3570690036345665,-0.04314599132079729,-0.9054411134085975,0.22542524309793496,-0.041015625,-0.017578125,-0.025390625,0.02020120620727539,0.01062631607055664,-0.02803182601928711
556,966000000,imu1_frame,0.35742804305447146,-0.04027265353432633,-0.9056923263715297,0.2243762852158882,-0.041015625,-0.017578125,-0.025390625,0.002724170684814453,-0.011091470718383789,-0.023800373077392578
556,990000000,imu1_frame,0.3590845131400854,-0.03929571198664421,-0.9052901993907158,0.22352586948612585,0.017578125,-0.009765625,-0.01171875,0.03413867950439453,0.005226612091064453,-0.0021309852600097656
557,15000000,imu1_frame,0.357602463313386,-0.041097996318283245,-0.905657028541264,0.22409100737117751,0.017578125,-0.009765625,-0.01171875,0.0022139549255371094,0.014602184295654297,0.019028663635253906
557,41000000,imu1_frame,0.355848951295025,-0.04006923298679441,-0.9065008470705745,0.22365642108021774,0.017578125,-0.009765625,-0.01171875,0.020963191986083984,-0.03527212142944336,0.028103351593017578
557,65000000,imu1_frame,0.3573532240021181,-0.04148739134746328,-0.9058363422706016,0.22369173135431733,0.017578125,-0.009765625,-0.01171875,0.036663055419921875,-0.027591228485107422,-0.022918701171875
557,91000000,imu1_frame,0.3559068375623296,-0.0400412787790055,-0.9065944750652918,0.22318932938474262,0.005859375,0.00390625,-0.013671875,0.023127079010009766,0.007209300994873047,-0.04535341262817383
557,116000000,imu1_frame,0.356847613852413,-0.03790487485550595,-0.9065775048161924,0.2221266051405688,0.005859375,0.00390625,-0.013671875,-0.02839374542236328,-0.02971363067626953,0.0035376548767089844
557,141000000,imu1_frame,0.3567103897367021,-0.040223902745630896,-0.9063628868895314,0.22281394204823607,0.005859375,0.00390625,-0.013671875,0.03520822525024414,0.003282308578491211,-0.03389120101928711
557,166000000,imu1_frame,0.3561736957697557,-0.04253515657626651,-0.9062854601310036,0.22355698077197422,0.00390625,-0.01171875,-0.009765625,0.014487743377685547,-0.040441036224365234,-0.037627220153808594
557,190000000,imu1_frame,0.3566779854699062,-0.04049737471449857,-0.9064505507081311,0.22245938155827186,0.015625,-0.009765625,-0.015625,0.034328460693359375,0.0009837150573730469,-0.03391456604003906
557,215000000,imu1_frame,0.355381166117745,-0.038909638640906824,-0.9072029033324454,0.2217502175304629,0.015625,-0.009765625,-0.015625,-0.015001296997070312,-0.03903079032897949,0.0549626350402832
557,241000000,imu1_frame,0.3552326421276556,-0.04147778441653662,-0.9069949037509535,0.22237267803554264,0.015625,-0.009765625,-0.015625,0.008310317993164062,-0.009943485260009766,-0.013392925262451172
557,265000000,imu1_frame,0.35657121008548387,-0.04305642089477923,-0.9063733989128759,0.22246433085109613,0.015625,-0.009765625,-0.015625,0.020733356475830078,-0.0047893524169921875,-0.03123760223388672
557,290000000,imu1_frame,0.35829256996000786,-0.04422127563619588,-0.905570029687207,0.22274163154846363,-0.009765625,-0.001953125,0.001953125,0.040305137634277344,-0.034162044525146484,-0.005194664001464844
557,316000000,imu1_frame,0.3574323218749523,-0.04195477874248592,-0.9061664199791339,0.22213588436348872,-0.009765625,-0.001953125,0.001953125,0.0006055831909179688,-0.17798185348510742,0.057102203369140625
557,341000000,imu1_frame,0.35550139546503223,-0.04142163289469366,-0.9069109553815005,0.22229603046335794,-0.009765625,-0.001953125,0.001953125,0.012845993041992188,-0.009533882141113281,0.05667591094970703
557,366000000,imu1_frame,0.3551455508971595,-0.0436391285063465,-0.9067164797292675,0.22323191870457196,-0.009765625,-0.001953125,0.001953125,0.03377246856689453,0.06357455253601074,-0.011003971099853516
557,390000000,imu1_frame,0.35482765823501417,-0.04552423778690732,-0.9065939736790067,0.22385764140248976,-0.021484375,-0.001953125,-0.02734375,0.018504619598388672,0.027320146560668945,-0.012131214141845703
557,416000000,imu1_frame,0.35491904896585386,-0.04272674206533793,-0.9069685645406657,0.22274406193813598,-0.021484375,-0.001953125,-0.02734375,-0.04222726821899414,-0.0723428726196289,0.01946878433227539
557,440000000,imu1_frame,0.3567262684164153,-0.0420109309737256,-0.9064383203539703,0.22215090027792692,-0.021484375,-0.001953125,-0.02734375,-0.04939556121826172,0.01519465446472168,0.004338264465332031
557,466000000,imu1_frame,0.3583639523979884,-0.042008581194762286,-0.9058239899168774,0.22202129631808804,-0.015625,-0.03125,0.005859375,-0.024570465087890625,0.009539127349853516,0.027224063873291016
557,491000000,imu1_frame,0.36009165072772975,-0.04297703011822088,-0.9050992736802521,0.22199613226783116,0.0078125,-0.025390625,0.0,-0.0031766891479492188,-0.014352798461914062,0.053132057189941406
557,516000000,imu1_frame,0.3586402931880068,-0.04136713914128735,-0.9058804685912171,0.2214643911021432,0.0078125,-0.025390625,0.0,0.023101329803466797,-0.09366393089294434,0.03008747100830078
557,541000000,imu1_frame,0.35713015919260777,-0.03945680449667981,-0.906674592488171,0.22100315226345232,-0.013671875,-0.033203125,0.001953125,0.01052713394165039,-0.05069088935852051,0.005939483642578125
557,565000000,imu1_frame,0.35595312378727556,-0.03753926525719275,-0.9073347630533959,0.22052620022316732,-0.0078125,-0.03125,0.009765625,0.0028896331787109375,-0.008786201477050781,-0.013354301452636719
557,590000000,imu1_frame,0.35675155090330113,-0.035767465417989336,-0.9072872259446306,0.21972462079466445,-0.01171875,-0.052734375,0.0,0.024869918823242188,0.024836063385009766,-0.004788875579833984
557,615000000,imu1_frame,0.35446133564622867,-0.03705280279428063,-0.9079631762949693,0.2204248666310822,-0.01171875,-0.052734375,0.0,0.061089515686035156,0.045578718185424805,0.035536766052246094
557,641000000,imu1_frame,0.3524479273469274,-0.0389155559348431,-0.9084582555031144,0.2212908403512782,-0.01171875,-0.052734375,0.0,0.020073890686035156,0.014853715896606445,-0.016866207122802734
557,666000000,imu1_frame,0.35010034984922095,-0.03819108722906843,-0.9093999596028913,0.22127561855291342,-0.01171875,-0.052734375,0.0,0.027058124542236328,-0.0017952919006347656,-0.09315776824951172
557,691000000,imu1_frame,0.35148654353421316,-0.038684239952674254,-0.9088304474947758,0.2213322321762044,-0.017578125,-0.041015625,0.00390625,0.045513153076171875,-0.016480445861816406,-0.07344579696655273
557,715000000,imu1_frame,0.3501095194282197,-0.03668648498246243,-0.909560207918507,0.22085663765577654,-0.017578125,-0.041015625,0.00390625,0.03510427474975586,-0.08560943603515625,-0.024930477142333984
557,740000000,imu1_frame,0.34939871532357597,-0.03894717617006015,-0.9095079510292307,0.22180834567983176,-0.017578125,-0.041015625,0.00390625,-0.027459144592285156,-0.01590561866760254,0.007746696472167969
557,766000000,imu1_frame,0.3500325115295106,-0.037081663978773494,-0.909577782044694,0.22084032575497548,0.0078125,-0.046875,-0.001953125,-0.006945133209228516,0.02109241485595703,0.013629913330078125
557,791000000,imu1_frame,0.34938086200323637,-0.039373897730874276,-0.9095538138791905,0.22157294307106432,-0.01171875,-0.048828125,-0.01171875,-0.029133319854736328,-0.021841764450073242,0.008155345916748047
557,815000000,imu1_frame,0.34776089903158325,-0.0375360533772435,-0.9103972383384968,0.22097572316262273,-0.01171875,-0.048828125,-0.01171875,-0.004714488983154297,-0.05293750762939453,0.026295185089111328
557,841000000,imu1_frame,0.3458688464714797,-0.035152807472997996,-0.9114059777808414,0.2201775756806374,-0.03125,-0.080078125,-0.021484375,-0.020725250244140625,0.0023508071899414062,-0.0027451515197753906
557,865000000,imu1_frame,0.34691563334100245,-0.03476140594207004,-0.9111374774476512,0.21970363035433138,-0.01953125,-0.078125,-0.015625,-0.0019598007202148438,0.008239269256591797,0.010868549346923828
557,891000000,imu1_frame,0.3448357194891261,-0.03650166596884238,-0.9116945893292078,0.2203835990580127,-0.021484375,-0.0703125,-0.015625,-0.04312849044799805,-0.018831491470336914,-0.014800548553466797
557,916000000,imu1_frame,0.3427436728675399,-0.03463054954500489,-0.912694808121513,0.21980829596608545,-0.021484375,-0.0703125,-0.015625,-0.030106544494628906,-0.012357711791992188,0.032604217529296875
557,941000000,imu1_frame,0.3432423791312368,-0.036176183299676846,-0.9123761918359392,0.22010369715464984,-0.021484375,-0.0703125,-0.015625,0.008795738220214844,0.0343174934387207,-0.07578468322753906
557,966000000,imu1_frame,0.3430606231874606,-0.03823737195269689,-0.9122266357138461,0.22065782854587335,-0.021484375,-0.0703125,-0.015625,0.0343475341796875,0.02988600730895996,-0.07912445068359375
557,990000000,imu1_frame,0.3436491200149936,-0.03979549577319577,-0.9118378854767107,0.22107300024753576,-0.0234375,-0.048828125,-0.009765625,0.03517484664916992,-0.0029180049896240234,-0.06885337829589844
558,16000000,imu1_frame,0.34211479421188046,-0.0374713681897253,-0.9126739079228806,0.22040803511698423,-0.0234375,-0.048828125,-0.009765625,-0.01505422592163086,-0.0643312931060791,0.028186321258544922
558,41000000,imu1_frame,0.3407523173820041,-0.035187814087506625,-0.9134356633377237,0.2197384010165487,-0.0234375,-0.048828125,-0.009765625,-0.023990154266357422,0.025277376174926758,0.006755828857421875
558,65000000,imu1_frame,0.34154242277863733,-0.03661882565786299,-0.9130363989406811,0.2199371938971923,-0.01171875,-0.05859375,-0.013671875,-0.018896102905273438,-0.004687309265136719,0.01927947998046875
558,91000000,imu1_frame,0.34119518372017904,-0.034075591851834765,-0.9134789556850934,0.2190454248930377,-0.01953125,-0.046875,-0.0078125,-0.010567665100097656,0.04783153533935547,0.011148929595947266
558,115000000,imu1_frame,0.34066799991445657,-0.036210482594339746,-0.9134137463215612,0.21979409185730903,-0.01953125,-0.046875,-0.0078125,0.00896310806274414,-0.032028913497924805,-0.0359187126159668
558,141000000,imu1_frame,0.3413433306445908,-0.03411822431671404,-0.9134870228166321,0.2187741678981727,0.0078125,-0.025390625,-0.0078125,0.031166553497314453,0.009186983108520508,-0.029797077178955078
558,166000000,imu1_frame,0.34062471579576,-0.036564287147626336,-0.9134975506054375,0.21945405198425913,0.0078125,-0.033203125,-0.009765625,0.007480144500732422,-0.03595852851867676,-0.03598833084106445
558,191000000,imu1_frame,0.34102645793526287,-0.034448973234545675,-0.9136699537747697,0.21845237192675185,0.0,-0.0390625,-0.01171875,0.025531768798828125,0.00665736198425293,-0.03357887268066406
558,216000000,imu1_frame,0.3388352735101569,-0.03566208233468142,-0.914329067747681,0.218909180210671,0.0,-0.0390625,-0.01171875,0.06343698501586914,0.029909133911132812,0.021013259887695312
558,241000000,imu1_frame,0.3364195828404652,-0.03573760094976293,-0.9151956311576462,0.21900147230043956,0.0,-0.0390625,-0.01171875,0.02557992935180664,-0.0013806819915771484,0.06345462799072266
558,266000000,imu1_frame,0.33399690510216645,-0.03603826148509999,-0.9160306700396583,0.21916916443240958,0.0,-0.0390625,-0.01171875,0.06050395965576172,0.0019290447235107422,0.07118940353393555
558,290000000,imu1_frame,0.3316707166272836,-0.036690155701626974,-0.9168085490584361,0.21934095053113012,0.025390625,-0.044921875,-0.001953125,0.020975589752197266,-0.0014486312866210938,0.04184722900390625
558,316000000,imu1_frame,0.3332287566073981,-0.03764556210201232,-0.9162569068518582,0.2191225412187811,0.025390625,-0.044921875,-0.001953125,-0.11106204986572266,0.05473446846008301,-0.08889150619506836
558,340000000,imu1_frame,0.3336631983529519,-0.0359774508662756,-0.9163893259019437,0.21818592178924948,0.025390625,-0.044921875,-0.001953125,-0.05551576614379883,-0.06749749183654785,-0.011396408081054688
558,366000000,imu1_frame,0.3344087070045039,-0.03454072107877261,-0.9164313863528194,0.2170973730250632,0.05078125,-0.0390625,0.0,-0.03502941131591797,-0.03785204887390137,-0.0036439895629882812
558,391000000,imu1_frame,0.3350749897385067,-0.0329371902861451,-0.9164857359593224,0.21608745574626292,0.03125,-0.041015625,-0.00390625,-0.015280723571777344,-0.00537562370300293,0.0029616355895996094
558,415000000,imu1_frame,0.33475815770585926,-0.035625261005172874,-0.9163661964860801,0.21665828062949108,0.03125,-0.041015625,-0.00390625,0.040738582611083984,0.1355571746826172,-0.03273725509643555
558,440000000,imu1_frame,0.33418278000044416,-0.03842807837753353,-0.9163160231939836,0.21727884844445322,0.03125,-0.041015625,-0.00390625,0.01777362823486328,0.0837709903717041,-0.0010447502136230469
558,466000000,imu1_frame,0.33420310262558806,-0.04130614098492346,-0.9159560855221291,0.21823505288413717,0.02734375,-0.00390625,0.021484375,0.0027866363525390625,0.026180267333984375,0.003704547882080078
558,491000000,imu1_frame,0.3341545939157493,-0.043970226449879815,-0.9156143105916525,0.21922080373614145,0.017578125,-0.00390625,0.0234375,-0.012522697448730469,-0.02745795249938965,0.007513999938964844
558,516000000,imu1_frame,0.3353655182167583,-0.04234134771668414,-0.9153947220206908,0.21860851392707126,0.017578125,-0.00390625,0.0234375,-0.019978046417236328,0.0007088184356689453,0.02451181411743164
558,541000000,imu1_frame,0.3337848944001342,-0.04131549660744199,-0.9160329797173467,0.2185503467865714,0.017578125,-0.00390625,0.0234375,-0.03960847854614258,-0.009494304656982422,0.0803065299987793
558,566000000,imu1_frame,0.33375068568939764,-0.03928442207640893,-0.9162747535359793,0.21796281796801942,0.017578125,-0.00390625,0.0234375,-0.02954387664794922,-0.00838470458984375,0.03368043899536133
558,591000000,imu1_frame,0.3336171530659782,-0.036847729956215505,-0.9165824618494094,0.21729802255727387,-0.013671875,-0.009765625,0.005859375,-0.019065380096435547,0.03993940353393555,0.028313636779785156
558,616000000,imu1_frame,0.3323040576002653,-0.03868971132728484,-0.9167669459768615,0.21820973008568859,-0.013671875,-0.009765625,0.005859375,0.024322032928466797,0.006449460983276367,-0.021211624145507812
558,640000000,imu1_frame,0.3338905399063882,-0.03952445807482214,-0.9161033599770344,0.2184251780672279,-0.013671875,-0.009765625,0.005859375,-0.029587745666503906,0.022916078567504883,-0.0032057762145996094
558,665000000,imu1_frame,0.3354840486040589,-0.040514989197147036,-0.915437407869451,0.21859400965224302,-0.00390625,-0.01953125,0.005859375,-0.009783267974853516,-0.00220489501953125,0.019193172454833984
558,691000000,imu1_frame,0.3338065974137786,-0.038930648043005806,-0.9161879241793688,0.21830540019405428,-0.0078125,-0.029296875,0.005859375,-0.027828693389892578,0.034594058990478516,-0.005179882049560547
558,716000000,imu1_frame,0.331712236816452,-0.03788301500789102,-0.9170062440777056,0.21824623122207024,-0.0078125,-0.029296875,0.005859375,-0.055520057678222656,-0.01605224609375,0.15740537643432617
558,741000000,imu1_frame,0.3300300993624588,-0.03619932926349568,-0.9177572891318444,0.217924987830783,-0.0078125,-0.029296875,0.005859375,-0.0734243392944336,-0.05527782440185547,0.16836261749267578
558,766000000,imu1_frame,0.3275171205188345,-0.03473203514005826,-0.9189063633382419,0.21711130076200116,0.009765625,-0.115234375,-0.0234375,-0.10434722900390625,-0.013820886611938477,0.13402795791625977
558,791000000,imu1_frame,0.32598984208000936,-0.03269610988740789,-0.9197438769672384,0.2161776770162792,0.001953125,-0.115234375,-0.01171875,-0.11722517013549805,0.03465080261230469,0.11182785034179688
558,815000000,imu1_frame,0.3252074091095735,-0.03515070260040838,-0.9198178403256175,0.2166557402554862,0.001953125,-0.115234375,-0.01171875,0.010793209075927734,0.22121596336364746,-0.07848072052001953
558,840000000,imu1_frame,0.3249391074513241,-0.03741938792985763,-0.9197446880169119,0.21698865113264568,0.001953125,-0.115234375,-0.01171875,-0.004357814788818359,0.0662236213684082,-0.08258199691772461
558,865000000,imu1_frame,0.32538597938492086,-0.03879866296775233,-0.9195407848639312,0.21694094390745108,0.001953125,-0.115234375,-0.01171875,-0.042511940002441406,0.03999447822570801,-0.07485246658325195
558,891000000,imu1_frame,0.3262170777536644,-0.040667863423185784,-0.9191910275657575,0.21683264954581746,0.060546875,-0.109375,0.015625,-0.03764915466308594,0.003843069076538086,-0.06136512756347656
558,915000000,imu1_frame,0.3237849144672741,-0.04332542191394571,-0.9197916432816308,0.21741566164532888,0.060546875,-0.109375,0.015625,0.024045944213867188,0.03639554977416992,0.021497249603271484
558,941000000,imu1_frame,0.32385111913042725,-0.04640027650286814,-0.9195335987781694,0.2177737993802186,0.060546875,-0.109375,0.015625,-0.024999141693115234,-0.02118206024169922,-0.0035414695739746094
558,965000000,imu1_frame,0.3240312957450335,-0.045116784609200565,-0.9197057868150833,0.21704713963369826,0.01953125,-0.1015625,0.013671875,-0.014554023742675781,0.005567312240600586,-0.003551959991455078
558,991000000,imu1_frame,0.32523611342440106,-0.04633557644825846,-0.9192991372649354,0.21671082368848898,0.052734375,-0.091796875,0.009765625,-0.00036907196044921875,-0.018939733505249023,0.013908863067626953
559,16000000,imu1_frame,0.32243815633321815,-0.04815350689887525,-0.9201013117601414,0.21709088237658,0.052734375,-0.091796875,0.009765625,0.0597071647644043,-0.003873586654663086,-0.014220714569091797
559,40000000,imu1_frame,0.31964497727220903,-0.0493782863420403,-0.9209609268946517,0.21730127582671085,0.052734375,-0.091796875,0.009765625,0.009443283081054688,-0.016193389892578125,-0.01959848403930664
559,65000000,imu1_frame,0.3191058336883843,-0.047598201123901514,-0.9214582041012545,0.216380813036417,0.025390625,-0.087890625,0.001953125,0.011227130889892578,0.02343297004699707,-0.029716014862060547
559,91000000,imu1_frame,0.31912699641085257,-0.050230443173017406,-0.9212054950542738,0.21683011465716695,0.01953125,-0.083984375,0.001953125,-0.0015740394592285156,-0.026610136032104492,-0.024429798126220703
559,115000000,imu1_frame,0.31666631022142805,-0.049527089705204426,-0.9221541610826705,0.21656689163857684,0.01953125,-0.083984375,0.001953125,0.0023474693298339844,-0.002829313278198242,-0.05635976791381836
559,141000000,imu1_frame,0.3179914174214509,-0.04988931722389652,-0.9217273393940757,0.21635902173643792,-0.00390625,-0.06640625,0.001953125,0.022168636322021484,-0.013227224349975586,-0.03924703598022461
559,166000000,imu1_frame,0.3151985809630059,-0.05000656715061019,-0.9226221483395628,0.21660463797898832,-0.00390625,-0.06640625,0.001953125,0.01577138900756836,-0.005949497222900391,0.008475780487060547
559,191000000,imu1_frame,0.3124589733510194,-0.05015768370530089,-0.9235636448815744,0.2165266509942995,0.021484375,-0.07421875,-0.009765625,-0.028447628021240234,0.002476930618286133,-0.024839401245117188
559,215000000,imu1_frame,0.31178882754747145,-0.052814537666588696,-0.9235358126313199,0.21697915663732534,0.021484375,-0.07421875,-0.009765625,-0.01732015609741211,0.07182741165161133,0.011375904083251953
559,241000000,imu1_frame,0.3088848284189154,-0.05300643193892119,-0.9245143328895924,0.21691871571497312,0.021484375,-0.07421875,-0.009765625,-0.025476455688476562,0.0018858909606933594,0.015620231628417969
559,266000000,imu1_frame,0.3100699529253014,-0.052261374512049666,-0.9243249588466417,0.2162145773997828,0.013671875,-0.0703125,-0.001953125,-0.0013957023620605469,0.014814615249633789,0.02840137481689453
559,291000000,imu1_frame,0.30767626460078945,-0.053935747535814926,-0.9248946606512931,0.21678588062368567,0.009765625,-0.06640625,0.001953125,-0.04883861541748047,-0.009382486343383789,0.0029935836791992188
559,315000000,imu1_frame,0.3089382790185933,-0.05390306136487795,-0.9245717234731204,0.21637635704130861,0.009765625,-0.06640625,0.001953125,-0.027471542358398438,-0.011296987533569336,-0.0639200210571289
559,341000000,imu1_frame,0.3101031954246909,-0.0530454544214396,-0.9243875047552172,0.21570797158436797,0.009765625,-0.06640625,0.001953125,-0.00321197509765625,-0.035546064376831055,-0.09067773818969727
559,366000000,imu1_frame,0.3115740450276875,-0.05245915327675259,-0.9240943583789879,0.21498667055121654,0.025390625,-0.044921875,-0.00390625,0.02479267120361328,-0.026460647583007812,-0.07401275634765625
559,391000000,imu1_frame,0.3130867358530027,-0.05190691477533666,-0.9238144770466876,0.21412421635670484,0.041015625,-0.04296875,-0.0078125,0.053603172302246094,-0.017281532287597656,-0.05666780471801758
559,415000000,imu1_frame,0.31106218281839065,-0.05373205914656738,-0.9243145732242952,0.2144662070474434,0.041015625,-0.04296875,-0.0078125,0.05120706558227539,-0.00533294677734375,-0.038515567779541016
559,441000000,imu1_frame,0.3091022927131124,-0.05534237943091084,-0.924823576607251,0.21469593808405976,0.037109375,-0.017578125,-0.017578125,0.011878013610839844,-0.0281527042388916,-0.058838844299316406
559,466000000,imu1_frame,0.30975925128561227,-0.05350276098815559,-0.9249759871816303,0.21355580991157724,0.037109375,-0.017578125,-0.017578125,-0.005510807037353516,-0.029955625534057617,-0.015757083892822266
559,490000000,imu1_frame,0.31031085473132497,-0.05182031260058938,-0.9251351042798763,0.21247792230477547,0.04296875,-0.0234375,-0.013671875,0.013544559478759766,0.004537343978881836,-0.012534618377685547
559,515000000,imu1_frame,0.3086126066940527,-0.05395554195148583,-0.9254997145686014,0.21283171008019683,0.04296875,-0.0234375,-0.013671875,0.014882087707519531,0.08763504028320312,0.1315011978149414
559,540000000,imu1_frame,0.3072725925233561,-0.056449988315743826,-0.9257009896093628,0.21324781485251879,0.04296875,-0.0234375,-0.013671875,0.020066261291503906,0.0844278335571289,0.07778024673461914
559,566000000,imu1_frame,0.3056447067611152,-0.05877529584756631,-0.9259895352952199,0.21370577519263628,0.021484375,-0.03515625,-0.017578125,-0.017883777618408203,0.04606890678405762,0.06351423263549805
559,591000000,imu1_frame,0.30397517856103823,-0.061199166578300324,-0.9262857242074609,0.21412265167040503,0.01953125,-0.0625,-0.01953125,-0.05697202682495117,0.006340742111206055,0.04930257797241211
559,616000000,imu1_frame,0.3052580521183984,-0.06055312556888472,-0.9261129600854724,0.21322670039759167,0.01953125,-0.0625,-0.01953125,-0.031055450439453125,-0.020823001861572266,-0.05025434494018555
559,640000000,imu1_frame,0.3063834996655593,-0.0618079630862703,-0.9257240826562853,0.21294095336968397,0.01953125,-0.0625,-0.01953125,-0.017899513244628906,0.02817225456237793,-0.11192464828491211
559,665000000,imu1_frame,0.30784247522160113,-0.06325180943573053,-0.9251645191774844,0.21284461822568623,0.041015625,-0.046875,0.009765625,-0.0007605552673339844,-0.0027544498443603516,-0.09087896347045898
559,691000000,imu1_frame,0.30942759156523736,-0.06476328128171395,-0.9245997645101369,0.21254542677639915,0.078125,-0.060546875,0.021484375,0.018578529357910156,-0.03415799140930176,-0.06797218322753906
559,716000000,imu1_frame,0.30689179723659965,-0.06583429127530299,-0.9253332598710702,0.21270079703082148,0.078125,-0.060546875,0.021484375,-0.10554885864257812,0.033233642578125,0.21674156188964844
559,740000000,imu1_frame,0.3039320860424133,-0.06517421283876713,-0.9263787853262797,0.212602810781421,0.00390625,-0.1171875,0.0078125,-0.15000343322753906,0.05672907829284668,0.17971229553222656
559,766000000,imu1_frame,0.3014109574865289,-0.0635653711971968,-0.9274200440002042,0.21213896454512027,0.00390625,-0.1171875,0.0078125,-0.1432042121887207,-0.015498876571655273,0.2161412239074707
559,790000000,imu1_frame,0.2995682576506828,-0.061936675769534204,-0.9283244185195207,0.21127347486882422,0.021484375,-0.14453125,-0.005859375,-0.16352510452270508,0.02564692497253418,0.19049358367919922
559,815000000,imu1_frame,0.2960198746659227,-0.06350092371232652,-0.9292941315986681,0.2115473551400015,0.021484375,-0.14453125,-0.005859375,0.0013813972473144531,0.009120464324951172,0.004586219787597656
559,840000000,imu1_frame,0.2963291176485164,-0.06494207353589405,-0.9291597507047635,0.2112669846160821,0.021484375,-0.14453125,-0.005859375,0.00054931640625,-0.016510963439941406,-0.06636333465576172
559,865000000,imu1_frame,0.2968238767442261,-0.06444955715101093,-0.9291433908601454,0.2107946868364528,-0.03125,-0.130859375,-0.005859375,0.012073516845703125,-0.006849527359008789,-0.061870574951171875
559,890000000,imu1_frame,0.2977049887878266,-0.06518743359780228,-0.9288829310308508,0.21047289277079784,0.009765625,-0.10546875,-0.001953125,0.02392721176147461,-0.021675825119018555,-0.049762725830078125
559,915000000,imu1_frame,0.29495656451585406,-0.06411786218753959,-0.9299144055790366,0.2101159753424083,0.009765625,-0.10546875,-0.001953125,0.06301116943359375,-0.06833934783935547,-0.08818912506103516
559,940000000,imu1_frame,0.2918468006727386,-0.06410809235079468,-0.9308962331296058,0.21011378007484205,0.009765625,-0.10546875,-0.001953125,0.012136459350585938,-0.017548561096191406,-0.11997413635253906
559,966000000,imu1_frame,0.29341593525232257,-0.06500527548100322,-0.9304409526514581,0.20966887401016635,0.0546875,-0.0625,0.0078125,0.0348811149597168,-0.03715229034423828,-0.09978580474853516
559,991000000,imu1_frame,0.294737866289959,-0.06445094818251677,-0.9302179705689799,0.20897414357701105,0.04296875,-0.056640625,0.009765625,0.06079912185668945,-0.028211355209350586,-0.08598518371582031
560,15000000,imu1_frame,0.2930349843153191,-0.06702471784292194,-0.9304349142585613,0.209592594082093,0.04296875,-0.056640625,0.009765625,0.054949283599853516,0.0023193359375,-0.0598602294921875
560,40000000,imu1_frame,0.29188690576924753,-0.06992684607400634,-0.9304528409386488,0.2101660801076002,0.05859375,-0.025390625,0.005859375,0.021495342254638672,-0.049054622650146484,-0.06521892547607422
560,65000000,imu1_frame,0.28997757934262947,-0.06960875113590016,-0.9311256029862693,0.20993507736285,0.05859375,-0.025390625,0.005859375,-0.04293060302734375,0.004020214080810547,0.06845569610595703
560,91000000,imu1_frame,0.2892725970099243,-0.06804345606042048,-0.9316466127502534,0.2091077273977866,0.0546875,-0.046875,0.00390625,-0.04530477523803711,0.03939485549926758,0.05625724792480469
560,116000000,imu1_frame,0.2880057747082719,-0.07103847284060584,-0.9316929443400072,0.2096532055042585,0.0546875,-0.046875,0.00390625,0.03215169906616211,0.10409021377563477,0.046192169189453125
560,141000000,imu1_frame,0.2871309589077829,-0.07415317950093152,-0.9316028062844602,0.2101745220751512,0.0546875,-0.046875,0.00390625,0.00218963623046875,-0.0299680233001709,-0.029023170471191406
560,165000000,imu1_frame,0.28786176364499577,-0.07245526849312486,-0.9316198393827037,0.2096909963907071,0.025390625,-0.015625,0.029296875,0.02325153350830078,0.0006468296051025391,-0.02567577362060547
560,190000000,imu1_frame,0.2865518038194535,-0.07521667396419307,-0.9315994992235767,0.21060125529531645,0.041015625,-0.03125,0.03125,-0.013356208801269531,-0.04934835433959961,-0.03240680694580078
560,215000000,imu1_frame,0.2845970142086274,-0.07463839229208986,-0.9322265732224415,0.21068285662941438,0.041015625,-0.03125,0.03125,-0.04318857192993164,0.006914854049682617,0.053455352783203125
560,241000000,imu1_frame,0.28606125989731723,-0.07371839240229079,-0.9319634521830893,0.21018724509960213,0.041015625,-0.03125,0.03125,-0.013525962829589844,-0.018236160278320312,-0.007115364074707031
560,266000000,imu1_frame,0.28693428875209764,-0.07199721366481725,-0.9319425976498362,0.20968574068950463,0.009765625,-0.033203125,0.025390625,0.010050296783447266,0.012368202209472656,-0.0022363662719726562
560,291000000,imu1_frame,0.28573168801087645,-0.07476655181137416,-0.931929696299719,0.21041484346738917,0.033203125,-0.041015625,0.013671875,-0.024326801300048828,-0.037214040756225586,-0.007746696472167969
560,315000000,imu1_frame,0.2862244947378194,-0.07317562075380223,-0.9320632347281973,0.2097116916325482,0.033203125,-0.041015625,0.013671875,0.03199434280395508,-0.045571327209472656,-0.08496761322021484
560,341000000,imu1_frame,0.2873700155337928,-0.07171142506685735,-0.9319855586014459,0.2089948904766304,0.046875,-0.015625,0.01953125,0.0594325065612793,-0.019454002380371094,-0.07627201080322266
560,366000000,imu1_frame,0.28894225805226514,-0.07381054092377769,-0.9312871323563655,0.20920959028604558,0.046875,-0.015625,0.01953125,-0.002902984619140625,-0.02524852752685547,0.0294342041015625
560,390000000,imu1_frame,0.2877634657044926,-0.07272012076472567,-0.931811840501425,0.20887954840780795,0.052734375,-0.01953125,0.01953125,-0.01642465591430664,0.0005037784576416016,0.013042449951171875
560,416000000,imu1_frame,0.2866257725168887,-0.07573228695678157,-0.9317458527757994,0.20966628979521407,0.052734375,-0.01953125,0.01953125,-0.011935234069824219,0.0241086483001709,0.044158935546875
560,441000000,imu1_frame,0.28809633631475723,-0.07473160693360253,-0.9315268546815498,0.20898183398141248,0.052734375,-0.01953125,0.01953125,-0.05943155288696289,0.04049253463745117,0.12804222106933594
560,466000000,imu1_frame,0.28591999622130143,-0.07570526529533052,-0.9319657297761984,0.20966245989707447,0.015625,-0.01953125,0.025390625,-0.10154533386230469,0.0271761417388916,0.10650157928466797
560,491000000,imu1_frame,0.28749098716146393,-0.07497651993096735,-0.9316032792797683,0.2093866848563928,0.009765625,-0.03515625,0.03125,-0.07163143157958984,0.03612518310546875,0.12194252014160156
560,516000000,imu1_frame,0.285812719730907,-0.07727219719332132,-0.9317017677017367,0.21040891816269955,0.009765625,-0.03515625,0.03125,0.004643440246582031,0.06952857971191406,0.07091808319091797
560,540000000,imu1_frame,0.2860960697292573,-0.07967692548572958,-0.9312403708226696,0.21116817511327338,0.009765625,-0.03515625,0.03125,-0.04294300079345703,0.0210573673248291,0.050202369689941406
560,565000000,imu1_frame,0.28774945519903006,-0.08017996083741129,-0.9307391592206106,0.21094085049151448,0.009765625,-0.046875,0.009765625,-0.017395973205566406,0.007145404815673828,0.07031726837158203
560,591000000,imu1_frame,0.2853400067675516,-0.07994303561947795,-0.9314806692051579,0.21103069561309695,0.02734375,-0.041015625,0.01171875,-0.05619478225708008,0.01969599723815918,0.042606353759765625
560,616000000,imu1_frame,0.2837563374744517,-0.07856494598888591,-0.9321571698690142,0.2106962288856596,0.02734375,-0.041015625,0.01171875,0.0030364990234375,-0.022076845169067383,-0.014439582824707031
560,641000000,imu1_frame,0.2837620788227961,-0.0767609486869286,-0.9324352428069856,0.2101222438256496,0.033203125,-0.029296875,0.021484375,0.012958526611328125,0.013545513153076172,-0.019858360290527344
560,665000000,imu1_frame,0.2821309451783029,-0.07905048676288212,-0.9325634168701709,0.21089955863107188,0.033203125,-0.029296875,0.021484375,0.008489608764648438,0.009184122085571289,0.008134841918945312
560,691000000,imu1_frame,0.2801343167876658,-0.08123905165641632,-0.9328176745414481,0.2116037974776417,0.03515625,-0.033203125,0.015625,-0.03664398193359375,-0.026746034622192383,-0.006947517395019531
560,716000000,imu1_frame,0.2813536906663553,-0.07999112148737497,-0.9326784365952543,0.21107452508970678,0.02734375,-0.033203125,0.025390625,-0.00922536849975586,-0.005885124206542969,0.0024890899658203125
560,740000000,imu1_frame,0.282790435062926,-0.08152991605793244,-0.932068262892657,0.2112609664201426,0.02734375,-0.033203125,0.025390625,-0.028223037719726562,-0.0008537769317626953,0.050528526306152344
560,766000000,imu1_frame,0.2819451154799558,-0.07984201336445088,-0.9325502270167125,0.21090822376091264,0.033203125,-0.029296875,0.02734375,-0.033392906188964844,0.034551382064819336,0.035892486572265625
560,790000000,imu1_frame,0.2828887150120643,-0.08218109519774174,-0.931962485390918,0.2113437208315068,0.037109375,-0.033203125,0.02734375,-0.02983379364013672,-0.013414621353149414,0.05370140075683594
560,816000000,imu1_frame,0.2830509170752346,-0.0851873328954382,-0.9314790348016744,0.21206627356081792,0.037109375,-0.033203125,0.02734375,-0.008011341094970703,0.006078243255615234,-0.004978179931640625
560,841000000,imu1_frame,0.2808817436482401,-0.08486645556002803,-0.932123389676437,0.2122477731895232,0.037109375,-0.033203125,0.02734375,-0.003829479217529297,-0.020242929458618164,0.04427909851074219
560,866000000,imu1_frame,0.2792145446465047,-0.08419596680155612,-0.932695750495699,0.21220017492797005,0.0625,-0.03515625,0.037109375,-0.02822589874267578,-0.0017898082733154297,0.02380847930908203
560,891000000,imu1_frame,0.2803988136092452,-0.0834095688396695,-0.9325230054461694,0.211707802090881,0.068359375,-0.0390625,0.04296875,-0.0035538673400878906,0.010636329650878906,0.03417491912841797
560,916000000,imu1_frame,0.2796608883952608,-0.08681300893606701,-0.9322270773068534,0.21261694503816397,0.068359375,-0.0390625,0.04296875,-0.034244537353515625,0.06046247482299805,0.07648468017578125
560,940000000,imu1_frame,0.2789911414048757,-0.08964156365451599,-0.9319396533177633,0.21358093467616734,0.02734375,-0.041015625,0.041015625,-0.06146240234375,0.006949901580810547,0.07892704010009766
560,966000000,imu1_frame,0.277555016133803,-0.08813308152122198,-0.9325243072214181,0.2135279592974936,0.02734375,-0.041015625,0.041015625,9.059906005859375e-05,-0.034529685974121094,-0.012241363525390625
560,990000000,imu1_frame,0.2773296498540518,-0.08675486481632205,-0.9328024929949882,0.21316980978756253,0.056640625,-0.0390625,0.04296875,0.0038366317749023438,-0.0069887638092041016,-0.019402503967285156
561,16000000,imu1_frame,0.2794147225224719,-0.08693168401495865,-0.9322289846600107,0.2128835721979945,0.068359375,-0.025390625,0.046875,0.038445472717285156,-0.016347885131835938,0.0038805007934570312
561,40000000,imu1_frame,0.2779845344762046,-0.08979029627445761,-0.9321662924081923,0.2138417746488212,0.068359375,-0.025390625,0.046875,0.07271242141723633,0.045680999755859375,-0.0018177032470703125
561,66000000,imu1_frame,0.2762654077953273,-0.0926152095645865,-0.932152889798134,0.2149205375341713,0.060546875,-0.021484375,0.048828125,0.027558326721191406,-0.0044100284576416016,-0.010369300842285156
561,90000000,imu1_frame,0.2740679529657499,-0.09405863096571546,-0.932500645917584,0.21559748714052188,0.060546875,-0.03125,0.041015625,-0.017913341522216797,-0.025753259658813477,-0.028736114501953125
561,116000000,imu1_frame,0.27534513573827313,-0.09666025658236613,-0.9317618505036279,0.2160132055425271,0.060546875,-0.03125,0.041015625,-0.04557514190673828,0.037825822830200195,-0.0053424835205078125
561,140000000,imu1_frame,0.2768606468562186,-0.09860621522937754,-0.9310608839014091,0.2162189330498623,0.060546875,-0.03125,0.041015625,-0.030379295349121094,-0.003777742385864258,0.04578685760498047
561,166000000,imu1_frame,0.2762245376477806,-0.09703956922480836,-0.9314795578917758,0.21593786151500902,0.041015625,-0.064453125,0.048828125,-0.03249502182006836,0.028116941452026367,0.032935142517089844
561,191000000,imu1_frame,0.27774326700024615,-0.09954696309246287,-0.9306725496520405,0.21632772614546641,0.07421875,-0.025390625,0.05078125,-0.020609378814697266,-0.02446579933166504,0.05900001525878906
561,215000000,imu1_frame,0.275629664255184,-0.10030768006384486,-0.9310938707999964,0.216865998398696,0.07421875,-0.025390625,0.05078125,0.013215065002441406,-0.03313159942626953,-0.02727508544921875
561,240000000,imu1_frame,0.275294345498891,-0.09888546582765115,-0.9314136795928802,0.21657157119907694,0.056640625,-0.025390625,0.04296875,0.01541757583618164,-0.004850149154663086,-0.036429405212402344
561,266000000,imu1_frame,0.2733904912153197,-0.10150256102400544,-0.9314588891174813,0.2175757507229194,0.056640625,-0.025390625,0.04296875,0.0069866180419921875,-0.014738321304321289,-0.007534980773925781
561,291000000,imu1_frame,0.27243262794573925,-0.10024128395940334,-0.9318746150213214,0.21758182391829609,0.044921875,-0.021484375,0.048828125,-0.00287628173828125,0.011446237564086914,-0.02272510528564453
561,316000000,imu1_frame,0.273837070828325,-0.10239257195300379,-0.9311689462676535,0.21783804386699668,0.044921875,-0.025390625,0.029296875,0.009212493896484375,-0.03363680839538574,0.0007734298706054688
561,341000000,imu1_frame,0.2753068672881822,-0.1014667861017152,-0.9309635370285195,0.21729591083475144,0.044921875,-0.025390625,0.029296875,-0.03823518753051758,-0.01972818374633789,0.012866020202636719
561,365000000,imu1_frame,0.2766080556061973,-0.10021048893924439,-0.9308808467378664,0.2165795250177388,0.046875,-0.01171875,0.013671875,-0.00825643539428711,0.001636505126953125,0.02195453643798828
561,390000000,imu1_frame,0.2753926782191365,-0.09913388249293872,-0.9313841129469236,0.2164601124346931,0.029296875,0.001953125,0.01171875,-0.022831439971923828,0.026012897491455078,0.0046596527099609375
561,416000000,imu1_frame,0.2744158654382964,-0.10176507187024317,-0.931204287305971,0.21725187742796068,0.029296875,0.001953125,0.01171875,0.02380657196044922,0.056497812271118164,0.03573322296142578
561,440000000,imu1_frame,0.27392460705983407,-0.10434628736258555,-0.9308996560371822,0.21795181199204527,0.029296875,0.001953125,0.01171875,0.0008368492126464844,0.04754042625427246,0.03695869445800781
561,466000000,imu1_frame,0.2731232980689469,-0.1073980993517549,-0.9306226945182329,0.21865660921910318,0.052734375,-0.0078125,0.013671875,-0.02969980239868164,-0.007761716842651367,0.041022300720214844
561,491000000,imu1_frame,0.2731161013703724,-0.10572555366087044,-0.9309730342172592,0.2179883300446629,0.044921875,-0.03125,0.013671875,-0.019418716430664062,0.025530338287353516,0.033982276916503906
561,515000000,imu1_frame,0.274870965748114,-0.1055988714619669,-0.9306045209117534,0.21741677992570888,0.044921875,-0.03125,0.013671875,-0.06590604782104492,0.02421426773071289,0.09130573272705078
561,541000000,imu1_frame,0.2760621748872747,-0.1038956076892912,-0.9305466035845256,0.21697556741874116,0.005859375,-0.025390625,0.03125,-0.03639507293701172,0.05262017250061035,0.09716606140136719
561,566000000,imu1_frame,0.2736427317368115,-0.1041439159799656,-0.931076695450799,0.21764624352465442,0.005859375,-0.025390625,0.03125,0.03723335266113281,-0.024448633193969727,-0.03327751159667969
561,591000000,imu1_frame,0.27143826592582304,-0.1042801724223507,-0.9316009206122284,0.2180977719858583,0.048828125,-0.03125,0.04296875,-0.0016045570373535156,-0.021015644073486328,-0.056209564208984375
561,615000000,imu1_frame,0.2735648048283294,-0.10460058510299931,-0.9310034974284932,0.21783824946795263,0.07421875,-0.00390625,0.044921875,0.033036231994628906,-0.03327012062072754,-0.03226757049560547
561,641000000,imu1_frame,0.27418583241408184,-0.10799485854483132,-0.9302516508371013,0.21861176991673326,0.07421875,-0.00390625,0.044921875,0.024225234985351562,0.01694202423095703,-0.054480552673339844
561,666000000,imu1_frame,0.27487773731353016,-0.1112799585116132,-0.9295089107675951,0.21925370046292614,0.080078125,-0.01171875,0.04296875,0.017382144927978516,-0.04758405685424805,-0.0329742431640625
561,691000000,imu1_frame,0.27454503623045434,-0.11007072999540927,-0.9298472868830768,0.21884579172485166,0.076171875,-0.01953125,0.03515625,0.019251346588134766,-0.022753000259399414,-0.041764259338378906
561,716000000,imu1_frame,0.27357073958902084,-0.11333576727494646,-0.9295442848134676,0.2196849491147139,0.076171875,-0.01953125,0.03515625,-0.054981231689453125,-0.007517099380493164,0.07142448425292969
561,741000000,imu1_frame,0.2748616753340976,-0.11243920104316178,-0.9294181913874198,0.21906690991440494,0.076171875,-0.01953125,0.03515625,-0.027002334594726562,0.006833791732788086,0.05395984649658203
561,766000000,imu1_frame,0.2739791282881769,-0.11135521048510527,-0.9299098217819126,0.21863937823228527,0.068359375,-0.02734375,0.01953125,-0.03479909896850586,0.03150343894958496,0.03976249694824219
561,790000000,imu1_frame,0.27548226981879653,-0.11383362283191927,-0.9291573464862468,0.21867338841084608,0.0859375,-0.0234375,0.025390625,-0.02225017547607422,-0.018441200256347656,0.06679534912109375
561,815000000,imu1_frame,0.275570680381717,-0.11729690838764395,-0.9285772995741123,0.21919496826411752,0.0859375,-0.0234375,0.025390625,-0.00069427490234375,0.033979177474975586,0.0013675689697265625
561,841000000,imu1_frame,0.27591269776731475,-0.12106423441701364,-0.9278741366378417,0.21969347034986014,0.1015625,-0.01953125,0.029296875,-0.015601158142089844,-0.036890506744384766,0.022606849670410156
561,866000000,imu1_frame,0.2774805973233459,-0.12381795169078483,-0.9270378653213097,0.21971442649195105,0.1015625,-0.01953125,0.029296875,-0.0035915374755859375,-0.017427682876586914,-0.025382041931152344
561,891000000,imu1_frame,0.2794139699689296,-0.12357270687000413,-0.9266664817281989,0.21896769429416646,0.09375,-0.009765625,0.02734375,0.032291412353515625,-0.016326904296875,-0.0055141448974609375
561,916000000,imu1_frame,0.2772300705831017,-0.12430923035777,-0.9271356256939063,0.21934045404693606,0.076171875,-0.029296875,0.033203125,-0.008738994598388672,-0.0235137939453125,-0.02569103240966797
561,941000000,imu1_frame,0.2754297347765586,-0.12707198740476114,-0.9271047178668719,0.22015452147731798,0.076171875,-0.029296875,0.033203125,0.018799304962158203,0.08609414100646973,0.12467765808105469
561,965000000,imu1_frame,0.273441988725601,-0.12894236237712928,-0.9271890263523915,0.22118737621776222,0.02734375,-0.0234375,0.04296875,-0.027420997619628906,0.05501699447631836,0.11271286010742188
561,990000000,imu1_frame,0.2710813083223212,-0.13039362642363625,-0.9274471094103134,0.22215824475541263,0.015625,-0.033203125,0.037109375,-0.07758092880249023,0.03311324119567871,0.09494590759277344
562,16000000,imu1_frame,0.2720276659371825,-0.12874083564090386,-0.927506671571325,0.22171630610745027,0.015625,-0.033203125,0.037109375,-0.08700084686279297,-0.05599856376647949,0.018485069274902344
562,41000000,imu1_frame,0.2730650267833359,-0.12725276899561092,-0.9275088164844085,0.2212908025076001,0.015625,-0.033203125,0.037109375,-0.02552032470703125,-0.031248807907104492,-0.016971588134765625
562,66000000,imu1_frame,0.2743003463243274,-0.1258044365728368,-0.9274645080880166,0.2207762441523059,0.01953125,-0.0234375,0.029296875,0.004168987274169922,-0.0074656009674072266,-0.010918617248535156
562,90000000,imu1_frame,0.27486057475042935,-0.1242790924422923,-0.9276159972723824,0.22030645300114862,0.025390625,-0.021484375,0.025390625,0.02289295196533203,0.019902706146240234,-0.012349128723144531
562,115000000,imu1_frame,0.2758290024691874,-0.12652295513474057,-0.9269311032423098,0.22070123031560093,0.025390625,-0.021484375,0.025390625,0.026070117950439453,-0.025348663330078125,-0.06906890869140625
562,141000000,imu1_frame,0.27817510907261095,-0.12700664628206504,-0.9262837129097714,0.22019628446164055,0.02734375,0.0,0.0,0.06422567367553711,-0.039881229400634766,-0.04126596450805664
562,166000000,imu1_frame,0.2761386982992087,-0.1276050540600156,-0.9267173484977141,0.22058858871964662,0.02734375,0.0,0.0,0.10431957244873047,-0.006130218505859375,0.060762882232666016
562,190000000,imu1_frame,0.27417484248040225,-0.12797166062638554,-0.927152323356905,0.22099769030753483,0.017578125,0.001953125,0.001953125,0.06847238540649414,-0.007584095001220703,0.04146862030029297
562,216000000,imu1_frame,0.2719667555916867,-0.12821025092906663,-0.9276677741583261,0.22142428999044889,0.01171875,-0.00390625,0.001953125,0.029096603393554688,-0.005930662155151367,0.01909160614013672
562,241000000,imu1_frame,0.274078897217983,-0.12780254045285194,-0.9272408730966009,0.22084300308731755,0.01171875,-0.00390625,0.001953125,-0.009852886199951172,-0.003455638885498047,-0.0033941268920898438
562,265000000,imu1_frame,0.2760968468032065,-0.12701415014143147,-0.9269086967824972,0.22017766616564247,0.0234375,0.0,0.005859375,0.029996871948242188,0.006528615951538086,0.014384269714355469
562,291000000,imu1_frame,0.27404033630161606,-0.12818637651252712,-0.9272063245889516,0.22081344750384557,0.03125,0.0,0.01171875,-0.01226806640625,-0.010042190551757812,-0.0018663406372070312
562,316000000,imu1_frame,0.27297831390707883,-0.13068786472682478,-0.9269860759474157,0.22158595882682536,0.03125,0.0,0.01171875,-0.0064220428466796875,0.023787736892700195,0.03849029541015625
562,341000000,imu1_frame,0.2710786035845427,-0.13051617042817923,-0.9275005381034698,0.22186633758457086,0.03125,0.0,0.01171875,0.0009989738464355469,-0.006755352020263672,0.02132701873779297
562,365000000,imu1_frame,0.26955543435734175,-0.12950938265321282,-0.9280842335069398,0.22187123096301664,0.01953125,-0.009765625,0.009765625,-0.019186973571777344,0.016600370407104492,0.0001125335693359375
562,391000000,imu1_frame,0.271360483889546,-0.1308829099462308,-0.9273839962035122,0.22179286564910672,0.01953125,-0.009765625,0.009765625,-0.03503751754760742,0.02517533302307129,-0.01680469512939453
562,415000000,imu1_frame,0.2731952068183895,-0.13005953213809535,-0.9271093170364425,0.22117235662645207,0.01953125,-0.009765625,0.009765625,0.0019197463989257812,-0.002917766571044922,0.0024385452270507812
562,440000000,imu1_frame,0.271944257024506,-0.12904345460662942,-0.9275880213198038,0.22130198959473335,0.009765625,0.009765625,0.013671875,-0.01408529281616211,0.01896357536315918,-0.016016006469726562
562,466000000,imu1_frame,0.27381677812560523,-0.13052009460580652,-0.9267994367293839,0.2214309847313629,0.009765625,0.009765625,0.013671875,0.008858680725097656,-0.014532327651977539,0.011424064636230469
562,490000000,imu1_frame,0.27235347771745017,-0.12922824106795824,-0.9273734969151409,0.22158980595928915,-0.00390625,0.001953125,0.015625,-0.009342670440673828,0.012859344482421875,-0.010732650756835938
562,515000000,imu1_frame,0.2741523069545605,-0.1305597943073021,-0.9266410123972388,0.22165533344665497,0.001953125,0.009765625,0.005859375,0.013346195220947266,-0.01750349998474121,0.015221595764160156
562,541000000,imu1_frame,0.2729414243664615,-0.12882947168793596,-0.9272615451881433,0.22156708443428852,0.001953125,0.009765625,0.005859375,0.002501964569091797,-0.021117210388183594,0.03258514404296875
562,566000000,imu1_frame,0.27172946001919374,-0.12736182754720513,-0.9278568890802296,0.22141286960759976,0.013671875,0.005859375,0.001953125,-0.009563922882080078,0.010071516036987305,0.012331962585449219
562,591000000,imu1_frame,0.27329328767366257,-0.1292667430669673,-0.9271285575767577,0.221435150269825,0.013671875,0.0,-0.005859375,0.006565570831298828,-0.029491662979125977,0.03853034973144531
562,616000000,imu1_frame,0.2714711932204738,-0.13072651793686338,-0.9273198595808898,0.22201767223902205,0.013671875,0.0,-0.005859375,0.044909000396728516,0.026459693908691406,0.026559829711914062
562,640000000,imu1_frame,0.27000196009304644,-0.12962680655528577,-0.9279293038003675,0.22190772793383445,0.013671875,0.0,-0.005859375,-0.012506484985351562,0.012734413146972656,0.0054168701171875
562,666000000,imu1_frame,0.27202813468386794,-0.13105686966107552,-0.9272206969499339,0.22155489162447767,0.017578125,0.0078125,-0.021484375,0.0151214599609375,-0.018256425857543945,0.034149169921875
562,691000000,imu1_frame,0.2704986252692338,-0.13007702258092724,-0.927847379969236,0.2213813483746082,0.017578125,0.009765625,-0.017578125,-0.004544734954833984,0.00540471076965332,0.012949943542480469
562,716000000,imu1_frame,0.2728320025086667,-0.12990208375343887,-0.9273659306299578,0.22063675521195045,0.017578125,0.009765625,-0.017578125,-0.04032754898071289,0.0037200450897216797,-0.0061492919921875
562,741000000,imu1_frame,0.27529914724207816,-0.12952224984470107,-0.9268695273561199,0.2198800709059243,0.01171875,0.021484375,-0.01953125,0.005280017852783203,0.005291938781738281,0.018359661102294922
562,765000000,imu1_frame,0.2757875585615942,-0.1273218261557715,-0.9272216016429716,0.21906728777623796,0.01171875,0.021484375,-0.01953125,0.02754688262939453,0.007470607757568359,-0.026473045349121094
562,791000000,imu1_frame,0.2755196562249649,-0.1297200508371971,-0.9268422965796992,0.21960187775914203,0.0234375,0.044921875,-0.017578125,0.00901174545288086,-0.03675651550292969,-0.01731586456298828
562,815000000,imu1_frame,0.2758838545508965,-0.12794877852830955,-0.9271695760990535,0.21880079073795602,0.048828125,0.041015625,-0.01953125,0.026998519897460938,-0.0027418136596679688,-0.022304058074951172
562,841000000,imu1_frame,0.2746604820179564,-0.12980994905359225,-0.9271806026030849,0.21919654856075643,0.048828125,0.041015625,-0.01953125,0.034981727600097656,0.005671262741088867,0.016875267028808594
562,866000000,imu1_frame,0.2730963815562529,-0.13062256137206568,-0.9274713180779474,0.2194380709545116,0.03125,0.033203125,-0.0234375,0.004096508026123047,-0.004393339157104492,0.004268646240234375
562,890000000,imu1_frame,0.2719264062553281,-0.1297261018207568,-0.927992421066205,0.2192196034371384,0.01953125,0.025390625,-0.0234375,-0.009936809539794922,0.016710519790649414,-0.012754440307617188
562,916000000,imu1_frame,0.27360218820616905,-0.13163931447208949,-0.9272562289659815,0.21910914937058576,0.01953125,0.025390625,-0.0234375,-0.06567192077636719,0.09064197540283203,0.08908271789550781
562,940000000,imu1_frame,0.27433931136780426,-0.1338876403698692,-0.9266738254292772,0.2192889948417317,0.01953125,0.025390625,-0.0234375,-0.030365467071533203,0.008219718933105469,0.07349681854248047
562,965000000,imu1_frame,0.2733263386514028,-0.13196994211004706,-0.9273716876317526,0.21876562791701187,-0.001953125,0.0,-0.025390625,-0.03537130355834961,0.04825901985168457,0.052704811096191406
562,990000000,imu1_frame,0.2750397466561273,-0.13308889942021138,-0.9267805637765469,0.21844511717242854,-0.001953125,0.0,-0.025390625,-0.046657562255859375,0.06302118301391602,-0.04034423828125
563,16000000,imu1_frame,0.2767680023568378,-0.13432896515006626,-0.926158483690486,0.21814138782280054,-0.001953125,0.0,-0.025390625,-0.023211956024169922,0.0364534854888916,-0.015221118927001953
563,41000000,imu1_frame,0.27896839394332845,-0.13636253840981505,-0.9251018691590706,0.21855988876622678,0.05078125,0.052734375,0.0390625,0.00107574462890625,-0.009211301803588867,0.01944255828857422
563,66000000,imu1_frame,0.2801806583991297,-0.13464988613493992,-0.9250630415180104,0.2182351393344467,0.05078125,0.052734375,0.0390625,-0.008066177368164062,-0.09485340118408203,-0.015426158905029297
563,91000000,imu1_frame,0.28094159001835906,-0.13279585074209535,-0.925136669610453,0.2180807822017311,0.0390625,0.0546875,0.04296875,0.014413833618164062,-0.06392288208007812,-0.0167694091796875
563,116000000,imu1_frame,0.28092427225132577,-0.13089970672788084,-0.925510437061012,0.21766315933054012,0.029296875,0.033203125,0.0078125,0.025311946868896484,-0.028227806091308594,-0.026731014251708984
563,140000000,imu1_frame,0.2801641924721393,-0.12954634370586526,-0.9259626418303767,0.21752920728809108,0.029296875,0.033203125,0.0078125,-0.0189208984375,-0.0009262561798095703,0.07132625579833984
563,166000000,imu1_frame,0.2788363848541655,-0.12799618764859172,-0.9266587392645138,0.21718846049822194,0.0078125,0.005859375,-0.017578125,-0.03171253204345703,0.03289008140563965,0.04901552200317383
563,191000000,imu1_frame,0.27960232421529035,-0.13014136793213124,-0.926083866891204,0.2173808550217703,0.0078125,0.005859375,-0.017578125,-0.030632972717285156,0.10451745986938477,0.03302145004272461
563,215000000,imu1_frame,0.2804734449808411,-0.13212557386062465,-0.9255069485169406,0.21751866043960663,0.0078125,0.005859375,-0.017578125,-0.026813983917236328,0.10469460487365723,0.009762287139892578
563,241000000,imu1_frame,0.27933464628510085,-0.13425594902184546,-0.9254116194252408,0.21808445650659,0.0078125,0.005859375,-0.017578125,-0.019386768341064453,0.02906966209411621,0.05137443542480469
563,265000000,imu1_frame,0.277725376982705,-0.13543429258227233,-0.9256576183358718,0.21836698694929882,-0.02734375,-0.01171875,-0.044921875,-0.05292177200317383,0.012420415878295898,0.04006767272949219
563,291000000,imu1_frame,0.2793389169070814,-0.13328231573048177,-0.9257784797867419,0.21711701955039803,-0.02734375,-0.01171875,-0.044921875,-0.04971599578857422,0.05100536346435547,0.08538436889648438
563,316000000,imu1_frame,0.278536743987508,-0.13512150063383221,-0.9256900248922421,0.2173877644447793,-0.02734375,-0.01171875,-0.044921875,-0.034163475036621094,0.019879817962646484,0.047226905822753906
563,341000000,imu1_frame,0.2802822880636029,-0.13311423902629743,-0.9257530408308163,0.21611049432819895,-0.052734375,-0.01953125,-0.060546875,0.009615421295166016,0.05562019348144531,0.05576801300048828
563,365000000,imu1_frame,0.278435602284324,-0.13124279755054027,-0.9266921559056152,0.21561677034655058,-0.052734375,-0.01953125,-0.060546875,-0.009480476379394531,0.0233154296875,0.02594470977783203
563,391000000,imu1_frame,0.2776739833762692,-0.13260113640994287,-0.9267263853765494,0.2156207416406464,-0.06640625,-0.01171875,-0.078125,-0.028856277465820312,0.0018341541290283203,0.024658679962158203
563,415000000,imu1_frame,0.27927716302417094,-0.12966634336252744,-0.9269394584230539,0.21441582504688753,-0.0859375,0.017578125,-0.0703125,0.016767024993896484,0.05428171157836914,0.027065277099609375
563,441000000,imu1_frame,0.2815300888232516,-0.12867445661891017,-0.9265917656901493,0.2135682398115692,-0.0859375,0.017578125,-0.0703125,0.0619349479675293,-0.009753227233886719,-0.07044601440429688
563,466000000,imu1_frame,0.2803816533129391,-0.12927010509335604,-0.9268164979214389,0.21374411710102073,-0.095703125,0.015625,-0.08203125,0.039473533630371094,-0.017308950424194336,-0.08004093170166016
563,490000000,imu1_frame,0.28140511924163647,-0.12990826676144854,-0.9265076725166645,0.21335072969031538,-0.083984375,0.013671875,-0.08984375,0.05462026596069336,-0.030175447463989258,-0.0655813217163086
563,515000000,imu1_frame,0.2811901844176816,-0.12634046722958267,-0.9273515814595169,0.2121066026598276,-0.083984375,0.013671875,-0.08984375,0.03429841995239258,-0.03806781768798828,-0.04673576354980469
563,540000000,imu1_frame,0.2811944139268565,-0.1227143257725003,-0.9281349486628645,0.21079946133022825,-0.083984375,0.013671875,-0.08984375,0.017784595489501953,-0.04126429557800293,-0.029187679290771484
563,566000000,imu1_frame,0.2815601190668936,-0.11963234048130077,-0.9286568390170576,0.20978197684465097,-0.033203125,0.060546875,-0.05859375,0.04237699508666992,0.017518281936645508,-0.039762020111083984
563,591000000,imu1_frame,0.2812942408604145,-0.11694550776686921,-0.9292591320632634,0.20898508020656117,-0.033203125,0.060546875,-0.05859375,0.01464223861694336,-0.0077402591705322266,0.026920318603515625
563,616000000,imu1_frame,0.2816185368911322,-0.11853478921914869,-0.9289133290098398,0.20919017809621784,-0.033203125,0.060546875,-0.05859375,-0.023527145385742188,0.0398867130279541,0.07294750213623047
563,641000000,imu1_frame,0.28012526430928597,-0.11896335148713752,-0.9291465447712723,0.20991487712452997,-0.0859375,0.02734375,-0.029296875,-0.05277729034423828,0.033683061599731445,0.05854940414428711
563,666000000,imu1_frame,0.2810678756519513,-0.11989459824379417,-0.9286525613998745,0.21031061502908177,-0.0859375,0.02734375,-0.029296875,-0.008003711700439453,0.011913776397705078,0.03416013717651367
563,691000000,imu1_frame,0.2790865996108333,-0.11877926602545925,-0.9291948456142685,0.21118497760018634,-0.109375,0.025390625,0.001953125,-0.038401126861572266,0.03423643112182617,0.0072841644287109375
563,716000000,imu1_frame,0.28109875154019737,-0.11855546374830796,-0.9285736570499392,0.211374211603184,-0.099609375,0.0390625,-0.013671875,-0.0048465728759765625,0.030442237854003906,0.02825307846069336
563,741000000,imu1_frame,0.28138900945596634,-0.11491774837464215,-0.9290278446304733,0.21100094873518876,-0.099609375,0.0390625,-0.013671875,0.018834590911865234,-0.13419771194458008,-0.0632638931274414
563,766000000,imu1_frame,0.28162446082390974,-0.11101980573669741,-0.9294726848977503,0.21081459586279921,-0.123046875,0.044921875,-0.005859375,0.04204130172729492,-0.06432294845581055,-0.07788753509521484
563,790000000,imu1_frame,0.28387157318710177,-0.1091809502867442,-0.9290171766805247,0.21076891484113572,-0.123046875,0.044921875,-0.005859375,0.05281686782836914,0.0001430511474609375,-0.06097888946533203
563,816000000,imu1_frame,0.28239595432822356,-0.10619906965678669,-0.92972401413875,0.21115761913038844,-0.123046875,0.044921875,-0.005859375,0.11567926406860352,-0.06046772003173828,-0.125
563,840000000,imu1_frame,0.28334205818107655,-0.10253164267147162,-0.9299145904036564,0.21086345077134935,-0.123046875,0.044921875,-0.005859375,0.07540702819824219,-0.03551816940307617,-0.12951183319091797
563,866000000,imu1_frame,0.28466240285111427,-0.10450234387182625,-0.9290998634796438,0.21170739290452703,-0.01953125,0.076171875,0.009765625,0.08500957489013672,-0.0798025131225586,-0.10688495635986328
563,891000000,imu1_frame,0.2848955566882033,-0.10641487350645543,-0.9285829948297696,0.2127064131353357,-0.01953125,0.076171875,0.009765625,0.03732156753540039,0.07140898704528809,0.02078866958618164
563,916000000,imu1_frame,0.2838900960673984,-0.10513223537382667,-0.9289525119149316,0.21307476867776826,-0.01953125,0.076171875,0.009765625,-0.013326644897460938,0.021823883056640625,0.04338264465332031
563,941000000,imu1_frame,0.28272609737400944,-0.10507372534977893,-0.9289810131248384,0.2145221278990355,-0.119140625,0.07421875,0.021484375,-0.03704404830932617,0.019683122634887695,0.03024578094482422
563,966000000,imu1_frame,0.2843607986712623,-0.10146758227086126,-0.9288791816673041,0.21453841565609502,-0.119140625,0.07421875,0.021484375,-0.07099056243896484,-0.03874492645263672,0.029890060424804688
563,991000000,imu1_frame,0.2859942153450737,-0.09836541215952138,-0.9287406345796723,0.21441172579966483,-0.0859375,0.056640625,0.021484375,-0.02885580062866211,0.011706829071044922,0.03598308563232422
564,16000000,imu1_frame,0.28849836648372434,-0.09622925772555863,-0.9282572945043209,0.21411916703865855,-0.06640625,0.05859375,0.005859375,0.023378849029541016,0.04255318641662598,0.05597686767578125
564,40000000,imu1_frame,0.28697887957093365,-0.09569919244955626,-0.9286009560081188,0.21490707700195083,-0.06640625,0.05859375,0.005859375,0.0375828742980957,0.01828742027282715,0.036910057067871094
564,65000000,imu1_frame,0.2855533623327295,-0.09565192139382275,-0.9288277080120346,0.2158450277936775,-0.064453125,0.064453125,0.005859375,0.011415481567382812,0.019475698471069336,0.02077960968017578
564,91000000,imu1_frame,0.285415531544503,-0.09256754391368767,-0.9291981327360974,0.21577778914129783,-0.064453125,0.064453125,0.005859375,0.02411508560180664,0.03670001029968262,-0.027263641357421875
564,116000000,imu1_frame,0.2880957345676651,-0.09157163371811206,-0.9284687738031291,0.21578048960605198,-0.064453125,0.064453125,0.005859375,-0.0013957023620605469,0.005748271942138672,-0.043792724609375
564,141000000,imu1_frame,0.29044305560627975,-0.09178129059590552,-0.927626414627676,0.21616720618919097,-0.064453125,0.064453125,0.005859375,-0.004218101501464844,0.03042149543762207,-0.01258993148803711
564,165000000,imu1_frame,0.2920480692659135,-0.09283352650004326,-0.9268152519814872,0.21703306266583114,-0.06640625,0.076171875,0.015625,0.014248371124267578,0.0010821819305419922,0.009486198425292969
564,190000000,imu1_frame,0.29138208307809094,-0.09026927645650897,-0.9272125464855374,0.21731275394899371,-0.06640625,0.076171875,0.015625,0.01488351821899414,-0.03008723258972168,0.06695127487182617
564,216000000,imu1_frame,0.2937539807286779,-0.09076295825757832,-0.9262607838752888,0.2179716597843036,-0.06640625,0.076171875,0.015625,0.010013103485107422,0.02695775032043457,-0.021384239196777344
564,240000000,imu1_frame,0.29502246931233306,-0.09221064870030025,-0.9254550279331812,0.21907060537716577,-0.052734375,0.083984375,0.02734375,0.02020263671875,-0.009553670883178711,-0.0016002655029296875
564,265000000,imu1_frame,0.2937566749681108,-0.09147853343111656,-0.9257044157900237,0.2200227906827439,-0.052734375,0.083984375,0.02734375,0.039282798767089844,0.003166675567626953,0.024190425872802734
564,291000000,imu1_frame,0.2924418056028844,-0.09106704147192834,-0.9258703514345943,0.22124347815846623,-0.0625,0.0859375,0.033203125,0.016035079956054688,0.008994340896606445,0.007655620574951172
564,316000000,imu1_frame,0.29152669147050864,-0.09157529136977108,-0.9257807900501904,0.22261195597911113,-0.056640625,0.091796875,0.03515625,-0.005692481994628906,-0.003879547119140625,-0.0009789466857910156
564,340000000,imu1_frame,0.2938204421895682,-0.08914305190526921,-0.9252969046911856,0.22259537779893834,-0.056640625,0.091796875,0.03515625,-0.0345158576965332,-0.04700922966003418,-0.026309490203857422
564,366000000,imu1_frame,0.29619535235788363,-0.08672347951841433,-0.9248505191009431,0.22225856262588578,-0.0234375,0.0859375,0.021484375,0.016956329345703125,-0.010874271392822266,-0.007236480712890625
564,391000000,imu1_frame,0.2966901691107947,-0.08863653443414807,-0.9242324520537706,0.22341191303774935,-0.0234375,0.0859375,0.021484375,0.012019157409667969,-0.014171361923217773,0.0050601959228515625
564,416000000,imu1_frame,0.2997150012930141,-0.08804108800022557,-0.9233046449510004,0.22344622940558317,-0.0234375,0.0859375,0.021484375,-0.010479927062988281,0.02385401725769043,0.0812234878540039
564,441000000,imu1_frame,0.2998222086964811,-0.08984844318121239,-0.9228049340943787,0.22464406077469692,-0.0234375,0.0859375,0.021484375,-0.021434307098388672,0.09788370132446289,0.12393474578857422
564,466000000,imu1_frame,0.29924669828355754,-0.09158535947411033,-0.9222838325967291,0.22683929912401846,-0.0390625,0.07421875,0.103515625,-0.04641151428222656,0.05716681480407715,0.12335872650146484
564,490000000,imu1_frame,0.3013936781131943,-0.09260758097560415,-0.9211199126505257,0.22830635833882318,-0.0390625,0.07421875,0.103515625,-0.06085968017578125,0.06177234649658203,0.03894758224487305
564,516000000,imu1_frame,0.3031880223967666,-0.09431947358197003,-0.9198959399640405,0.23015716286058108,-0.0390625,0.07421875,0.103515625,-0.04685211181640625,0.014226198196411133,0.10156583786010742
564,541000000,imu1_frame,0.3022095491627964,-0.0919210918044382,-0.9200683776596941,0.23171983451348732,-0.099609375,0.076171875,0.109375,-0.05538320541381836,0.05217576026916504,0.08128070831298828
564,565000000,imu1_frame,0.30222730538266124,-0.08885743134367437,-0.9200825283394598,0.23283288818508246,-0.099609375,0.076171875,0.109375,-0.00399017333984375,-0.16892743110656738,0.03159523010253906
564,591000000,imu1_frame,0.30213556567235167,-0.08637625904410334,-0.9201456393700295,0.23363485223252445,-0.033203125,0.056640625,0.09765625,0.004673480987548828,-0.12873029708862305,0.022014141082763672
564,616000000,imu1_frame,0.30194474174656133,-0.08351744638692607,-0.9203035249204483,0.23429816708546222,-0.068359375,0.0625,0.07421875,0.01414632797241211,-0.0806119441986084,0.010265827178955078
564,640000000,imu1_frame,0.3018927111777176,-0.08071690655993843,-0.9204187794087483,0.23489325755515306,-0.068359375,0.0625,0.07421875,0.060932159423828125,-0.06884217262268066,-0.07746458053588867
564,665000000,imu1_frame,0.3016767058025467,-0.07844880928053546,-0.920598799213227,0.23523350183542033,-0.021484375,0.068359375,0.0546875,0.06800603866577148,-0.029329776763916016,-0.087066650390625
564,690000000,imu1_frame,0.304108358498694,-0.07678876813056282,-0.9199157544385993,0.23532232387914945,-0.021484375,0.068359375,0.0546875,0.04093456268310547,-0.010114192962646484,-0.024265766143798828
564,716000000,imu1_frame,0.3062624430008061,-0.07822554384770922,-0.9188064478693113,0.23638695321588074,-0.021484375,0.068359375,0.0546875,0.025719165802001953,0.02368903160095215,-0.06843423843383789
564,741000000,imu1_frame,0.30518723468151754,-0.07935703502909658,-0.9186910942970609,0.23784424743539223,-0.021484375,0.068359375,0.0546875,0.037352561950683594,-0.00021219253540039062,-0.003558635711669922
564,765000000,imu1_frame,0.3040350981453888,-0.07985437846438309,-0.9187286870038248,0.23900530749759272,-0.01953125,0.07421875,0.044921875,0.012766838073730469,-0.01074838638305664,-0.015729427337646484
564,790000000,imu1_frame,0.306832175716568,-0.07905196011061573,-0.9178214361723371,0.2391832244331851,-0.01953125,0.07421875,0.044921875,-0.017160415649414062,-0.009033918380737305,-0.0239105224609375
564,815000000,imu1_frame,0.306799450678394,-0.07669732843794495,-0.9179845079626525,0.23936595416743062,-0.01953125,0.07421875,0.044921875,0.03308820724487305,-0.007073163986206055,-0.0275421142578125
564,841000000,imu1_frame,0.3057938348121115,-0.07755637473771945,-0.9180447715285239,0.2401435753826989,-0.005859375,0.07421875,0.00390625,0.010213851928710938,-0.022527456283569336,-0.03699064254760742
564,866000000,imu1_frame,0.3085167417706176,-0.0761518346830811,-0.9173805050744993,0.23964834034664004,-0.005859375,0.07421875,0.00390625,0.023276329040527344,-0.006094694137573242,-0.008537769317626953
564,891000000,imu1_frame,0.310045495400086,-0.07804240126135809,-0.9165324759745441,0.24031103776449392,-0.005859375,0.07421875,0.00390625,0.035691261291503906,-0.010821819305419922,-0.023415088653564453
564,916000000,imu1_frame,0.30915076158252386,-0.0782893391154466,-0.9166820407182625,0.24081242122949884,0.005859375,0.091796875,-0.001953125,0.018697261810302734,-0.01433420181274414,-0.03346729278564453
564,940000000,imu1_frame,0.3119236459269277,-0.07902950161870168,-0.9156689572604771,0.24084920115097483,0.005859375,0.091796875,-0.001953125,0.019527435302734375,-0.00020503997802734375,-0.0014624595642089844
564,966000000,imu1_frame,0.31099664392688575,-0.07966442651120531,-0.9157269739050421,0.24161700245961376,0.005859375,0.087890625,0.01171875,-0.0008234977722167969,-0.012003660202026367,-0.010751724243164062
564,991000000,imu1_frame,0.31393558328531945,-0.08021520291543245,-0.9146524280609833,0.24170417168656783,0.005859375,0.087890625,0.01171875,0.0033130645751953125,0.004511833190917969,0.030747413635253906
565,16000000,imu1_frame,0.3157033786507165,-0.08218479859704152,-0.9136816721701098,0.24241047322365872,0.005859375,0.087890625,0.01171875,-0.016651630401611328,0.03235650062561035,0.05485677719116211
565,40000000,imu1_frame,0.3173729598502714,-0.07988725433930363,-0.9134588981139394,0.24183728497994889,0.005859375,0.087890625,0.01171875,0.023597240447998047,0.034209489822387695,0.029189109802246094
565,66000000,imu1_frame,0.3169112302535279,-0.0814083987701351,-0.913142867049508,0.24312558299258188,-0.005859375,0.095703125,0.03125,0.004169940948486328,0.0017445087432861328,0.028265953063964844
565,91000000,imu1_frame,0.3196251957455883,-0.079673108176228,-0.9124192577722959,0.2428642174639684,-0.005859375,0.095703125,0.03125,0.017636775970458984,-0.01645636558532715,-0.009853839874267578
565,116000000,imu1_frame,0.31904974818060866,-0.07820092619955392,-0.9126494626682428,0.24323410866650608,-0.005859375,0.095703125,0.03125,0.015292167663574219,-0.029221773147583008,0.08391141891479492
565,141000000,imu1_frame,0.3183412161670325,-0.0774225534714837,-0.912856661463032,0.24363360590406527,0.025390625,0.08984375,0.03515625,0.007039070129394531,-0.014767169952392578,0.07271623611450195
565,165000000,imu1_frame,0.32045299608360306,-0.07937412194186742,-0.9117522598941049,0.24437152584741173,0.025390625,0.08984375,0.03515625,0.027298927307128906,-0.023457765579223633,-0.0004286766052246094
565,191000000,imu1_frame,0.3223212950401548,-0.0772001213360721,-0.9113983980264562,0.24393049031259406,0.025390625,0.08984375,0.03515625,0.030382156372070312,0.009660005569458008,0.0124969482421875
565,216000000,imu1_frame,0.3213019504593254,-0.07823283214221438,-0.9114049881568073,0.24491963614404513,0.009765625,0.072265625,0.029296875,0.005859851837158203,-0.010117769241333008,0.002823352813720703
565,241000000,imu1_frame,0.32268788317786473,-0.07594896815308066,-0.9112251536361989,0.2444851808747446,0.009765625,0.072265625,0.029296875,0.0019021034240722656,-0.01210331916809082,0.017281055450439453
565,266000000,imu1_frame,0.3220051108581312,-0.07467555149489087,-0.9115557065222135,0.2445454241996048,0.01953125,0.064453125,0.0234375,-0.0021457672119140625,0.012961149215698242,0.004940986633300781
565,291000000,imu1_frame,0.32293981737173083,-0.07714852883143292,-0.9107639970644213,0.24549321886010864,0.01953125,0.064453125,0.0234375,-0.0037813186645507812,-0.04033803939819336,0.0240478515625
565,316000000,imu1_frame,0.3249959116312287,-0.07534934666276141,-0.9103340339602727,0.24493280710043405,0.01953125,0.064453125,0.0234375,0.0004773139953613281,-0.053037166595458984,-0.033403873443603516
565,340000000,imu1_frame,0.3273178246184654,-0.07663570260925585,-0.9093030534673994,0.24527121259431425,0.01953125,0.064453125,0.0234375,-0.006647586822509766,0.029536008834838867,-0.03904867172241211
565,366000000,imu1_frame,0.3296620378714253,-0.07781242179382476,-0.9081852388900351,0.24590189032069026,-0.015625,0.0703125,0.025390625,0.021214008331298828,-0.0049817562103271484,-0.0053920745849609375
565,391000000,imu1_frame,0.32908062477980415,-0.07938983431557504,-0.9079241375610366,0.24713752656350493,-0.015625,0.0703125,0.025390625,0.034929752349853516,-0.002609729766845703,-0.011912822723388672
565,416000000,imu1_frame,0.32788826008436756,-0.07988997204680656,-0.9080378450909348,0.24814139748904918,-0.015625,0.0703125,0.025390625,0.0495905876159668,-0.01234579086303711,-0.021755695343017578
565,440000000,imu1_frame,0.32675976301985976,-0.08008884493539534,-0.9082689335939524,0.24871947743637537,-0.0078125,0.0703125,0.0,0.02916860580444336,-0.014456987380981445,-0.03557395935058594
565,466000000,imu1_frame,0.32948654366239566,-0.07862113668386958,-0.9075725464275146,0.24813183468273745,-0.0078125,0.0703125,0.0,-0.03221750259399414,-0.03191876411437988,-0.04423999786376953
565,491000000,imu1_frame,0.33169303195566796,-0.07652293923797078,-0.9071429337684361,0.2474180066940007,-0.0078125,0.0703125,0.0,0.05446434020996094,-0.00013589859008789062,-0.0220794677734375
565,515000000,imu1_frame,0.33098293703973164,-0.07770772776277207,-0.9070515956007538,0.24833285596679877,0.015625,0.0859375,0.021484375,0.034209251403808594,-0.023516178131103516,-0.02768564224243164
565,541000000,imu1_frame,0.3332055587769361,-0.07961293965022849,-0.9058874771337974,0.24900545016638176,0.015625,0.0859375,0.021484375,-0.022449016571044922,0.04266190528869629,0.042159080505371094
565,565000000,imu1_frame,0.3337568292309731,-0.08188759496307649,-0.905166704759528,0.2501480308290027,0.009765625,0.0703125,0.033203125,-0.030257701873779297,-0.00661778450012207,0.05654001235961914
565,590000000,imu1_frame,0.3335437642687881,-0.08006045018017029,-0.9054103546560731,0.2501419023592803,0.009765625,0.0703125,0.033203125,-0.02346038818359375,0.026391267776489258,0.047991275787353516
565,616000000,imu1_frame,0.3362116663496514,-0.08105222256213367,-0.9042236807591524,0.2505429858976287,0.009765625,0.0703125,0.033203125,-0.028668880462646484,0.03414487838745117,-0.027272701263427734
565,640000000,imu1_frame,0.3383466526312625,-0.08255755050537866,-0.9031191824801578,0.25116037853161266,0.009765625,0.0703125,0.033203125,-0.006595611572265625,-0.0052242279052734375,0.04476022720336914
565,666000000,imu1_frame,0.3372983198339076,-0.08154296031117891,-0.9033457448025952,0.25208541093835046,-0.0078125,0.068359375,0.0703125,-0.020023822784423828,0.011329889297485352,0.027693748474121094
565,690000000,imu1_frame,0.33723894095506457,-0.0795441215661187,-0.9034497374567363,0.2524305871267095,-0.0078125,0.068359375,0.0703125,-0.01109170913696289,-0.07269716262817383,0.05576515197753906
565,715000000,imu1_frame,0.33687469095671035,-0.07877226449931711,-0.9034194217199533,0.25326610787402176,-0.0078125,0.068359375,0.0703125,-0.015167713165283203,0.01538228988647461,0.00952911376953125
565,741000000,imu1_frame,0.3389075723547231,-0.08046328524430303,-0.9021667653530625,0.2544846648046094,-0.0078125,0.048828125,0.076171875,0.002051830291748047,-0.030595064163208008,0.041606903076171875
565,766000000,imu1_frame,0.3397626083679396,-0.07823353821605335,-0.9020081152496318,0.25460212779358,-0.0078125,0.048828125,0.076171875,-0.04719209671020508,-0.10936713218688965,0.010892391204833984
565,790000000,imu1_frame,0.3399868875414864,-0.07612461917372229,-0.9020401273148613,0.25482850580203364,-0.0078125,0.048828125,0.076171875,0.0023016929626464844,-0.03970193862915039,0.003608226776123047
565,816000000,imu1_frame,0.3399184449175234,-0.07390462783635464,-0.902236974100563,0.2548764393879559,-0.00390625,0.052734375,0.05078125,0.013402462005615234,-0.0008254051208496094,-0.00380706787109375
565,840000000,imu1_frame,0.3391414491997507,-0.07563459276914247,-0.9019886278216283,0.2562791468141622,-0.00390625,0.052734375,0.05078125,-0.01264333724975586,0.002668142318725586,0.02999734878540039
565,866000000,imu1_frame,0.33812189471776766,-0.07483474876568845,-0.9023354767841402,0.25663988783192176,0.021484375,0.05078125,0.0390625,-0.024824142456054688,0.018973350524902344,0.014156818389892578
565,891000000,imu1_frame,0.3406860341571945,-0.07533190654693611,-0.9012908595261955,0.25677405733597475,0.021484375,0.05078125,0.0390625,-0.024494647979736328,-0.001964092254638672,-0.09493112564086914
565,915000000,imu1_frame,0.3420269037158435,-0.07756031552170566,-0.9003374300839562,0.25767131501302964,0.021484375,0.05078125,0.0390625,0.015387535095214844,-0.013456106185913086,-0.003961086273193359
565,940000000,imu1_frame,0.3411132854804094,-0.07664693825742593,-0.9007535856416901,0.25770128303553586,0.021484375,0.056640625,0.009765625,0.00670623779296875,0.006360292434692383,-0.018886566162109375
565,966000000,imu1_frame,0.3431411057940267,-0.07863019141052732,-0.8997179659485999,0.2580291771534966,0.02734375,0.05078125,0.00390625,0.024893760681152344,-0.03934001922607422,0.014223098754882812
565,991000000,imu1_frame,0.34466551323843353,-0.07662141875115358,-0.8995653049852008,0.2571324643827193,0.02734375,0.05078125,0.00390625,0.02702045440673828,-0.005445241928100586,-0.006522178649902344
566,15000000,imu1_frame,0.34570180541157086,-0.07891971113955867,-0.898793372697459,0.25774486245889744,0.02734375,0.05078125,0.00390625,0.02751636505126953,0.02411794662475586,-0.01680612564086914
566,41000000,imu1_frame,0.3459180225864198,-0.0813742963362043,-0.8982129350117745,0.25871310156855676,0.015625,0.05078125,0.009765625,0.013503551483154297,-0.025730371475219727,-0.006183147430419922
566,66000000,imu1_frame,0.3454942747438074,-0.07957061736539572,-0.8986587449602661,0.2582918563907497,0.015625,0.046875,0.001953125,0.018885135650634766,0.010212898254394531,-0.017570018768310547
566,90000000,imu1_frame,0.34784821491364515,-0.07870928451439126,-0.8980064011672727,0.2576644550092744,0.015625,0.046875,0.001953125,0.021979331970214844,-0.020294666290283203,-0.03133201599121094
566,115000000,imu1_frame,0.3486898718370309,-0.0768159530916123,-0.898080641338753,0.25683816749361144,0.041015625,0.04296875,0.009765625,0.04809093475341797,0.014191150665283203,-0.025604248046875
566,141000000,imu1_frame,0.3494426612722054,-0.0795888489961639,-0.8973309155243981,0.25759011945843335,0.041015625,0.04296875,0.009765625,0.0019989013671875,0.11012554168701172,0.03610038757324219
566,166000000,imu1_frame,0.3499213376525253,-0.08200159148256769,-0.8966641962813112,0.2585036084022495,0.01953125,0.0546875,0.01171875,-0.007769107818603516,0.0602107048034668,0.05026960372924805
566,191000000,imu1_frame,0.3487096602063546,-0.08290151089218209,-0.8968438841488308,0.25922955046715035,0.01953125,0.0546875,0.01171875,0.0446619987487793,0.006234407424926758,0.036641597747802734
566,216000000,imu1_frame,0.35109566830781325,-0.0839518699479247,-0.8957869066901685,0.2593255348595585,0.01953125,0.0546875,0.01171875,-0.04351520538330078,0.05497884750366211,-0.048424720764160156
566,241000000,imu1_frame,0.35332925660186154,-0.0849056760403982,-0.8946230086434407,0.25999833655440435,-0.009765625,0.056640625,0.048828125,-0.01839447021484375,0.024240493774414062,-0.014521121978759766
566,266000000,imu1_frame,0.35565964627503766,-0.086114549333213,-0.8933982863590825,0.2606338472557002,0.005859375,0.064453125,0.046875,0.0066318511962890625,-0.01110076904296875,0.021816730499267578
566,290000000,imu1_frame,0.35485570458085525,-0.08496758701937532,-0.8937052408730789,0.26105340549114014,0.005859375,0.064453125,0.046875,0.07807683944702148,-0.10763049125671387,0.04591655731201172
566,315000000,imu1_frame,0.3539226258381365,-0.08393776327799339,-0.8940232833475904,0.26156375063857823,0.005859375,0.064453125,0.046875,0.029335498809814453,-0.049870967864990234,0.06865262985229492
566,340000000,imu1_frame,0.35280344688735993,-0.08315348735039739,-0.894353976357258,0.26219494728126636,0.013671875,0.048828125,0.060546875,0.015041351318359375,-0.03533291816711426,0.050629615783691406
566,366000000,imu1_frame,0.3518556843866235,-0.08231355241775791,-0.8946581647171954,0.2626953078340944,0.025390625,0.05859375,0.0546875,0.004065036773681641,-0.019723176956176758,0.03485918045043945
566,390000000,imu1_frame,0.3543039023944331,-0.08174513439872967,-0.8937746372606455,0.26258974759082193,0.025390625,0.05859375,0.0546875,0.0047054290771484375,-0.02016615867614746,-0.007424831390380859
566,416000000,imu1_frame,0.35469504947987834,-0.07959454636443263,-0.893892194145073,0.2623220831535425,0.013671875,0.0546875,0.041015625,0.023869037628173828,0.017037391662597656,-0.008759021759033203
566,440000000,imu1_frame,0.35596387583211647,-0.08174938222201944,-0.8929021564170884,0.26331064671716053,0.013671875,0.0546875,0.041015625,0.02647256851196289,0.0066738128662109375,-0.023421764373779297
566,465000000,imu1_frame,0.3560643555327503,-0.08414643381001209,-0.892252562969542,0.26461843524287537,0.005859375,0.04296875,0.0390625,0.009244441986083984,-0.04373049736022949,-0.01423788070678711
566,491000000,imu1_frame,0.3571622744741172,-0.0864834316703161,-0.8912591604171063,0.26573075605130086,0.005859375,0.04296875,0.0390625,0.007462024688720703,-0.018114805221557617,0.004944801330566406
566,515000000,imu1_frame,0.3571897632223945,-0.08447423584863895,-0.8915002088674144,0.2655314559826662,0.005859375,0.04296875,0.0390625,-0.018626689910888672,-0.06041240692138672,0.037697792053222656
566,541000000,imu1_frame,0.3570214505355161,-0.08224413855851394,-0.8918239002835795,0.2653709034790135,-0.00390625,0.046875,0.033203125,-0.007460117340087891,-0.020080089569091797,0.02808380126953125
566,566000000,imu1_frame,0.35646743344997667,-0.08047444642813435,-0.8921997288804403,0.26539494371095407,0.0,0.052734375,0.03125,-0.005349159240722656,0.012881040573120117,0.01473236083984375
566,590000000,imu1_frame,0.3587321151654531,-0.08115025116341253,-0.8911424967063775,0.2656895873928057,0.0,0.052734375,0.03125,0.022676467895507812,-0.010996103286743164,-0.02963542938232422
566,615000000,imu1_frame,0.35826514587514524,-0.08316546673500237,-0.8907541573890861,0.26699554582028007,0.0,0.052734375,0.03125,0.03835773468017578,0.025901317596435547,0.009383201599121094
566,640000000,imu1_frame,0.3572344353152522,-0.08433179958791402,-0.8905158553322425,0.2687995855747197,-0.052734375,0.056640625,0.05859375,0.009697437286376953,-0.0012378692626953125,-0.0012083053588867188
566,666000000,imu1_frame,0.35568052348499785,-0.08427053116397612,-0.8906281225716443,0.27050210733982705,-0.072265625,0.05078125,0.0625,-0.019031047821044922,-0.0040416717529296875,-0.02305459976196289
566,691000000,imu1_frame,0.35688664068561393,-0.08146554588768719,-0.8903561726106769,0.27066801884859826,-0.072265625,0.05078125,0.0625,-0.024483203887939453,-0.040402889251708984,-0.011462211608886719
566,716000000,imu1_frame,0.3582430879700586,-0.07879910628114253,-0.889976341594578,0.2709145661881272,-0.05859375,0.064453125,0.07421875,0.010193824768066406,-0.0023152828216552734,-0.0008530616760253906
566,741000000,imu1_frame,0.359813888572722,-0.08005156655054357,-0.8887578566665142,0.2724613449583707,-0.05859375,0.064453125,0.07421875,0.019867420196533203,-0.0023152828216552734,-0.017898082733154297
566,765000000,imu1_frame,0.3593801361312624,-0.0815881046505458,-0.8882475680184496,0.2742363156898016,-0.052734375,0.0546875,0.060546875,-0.0022101402282714844,-0.038385868072509766,-0.019115924835205078
566,791000000,imu1_frame,0.3600691576574447,-0.07867553028499194,-0.8881943612440464,0.27435586250800914,-0.052734375,0.0546875,0.060546875,-0.049424171447753906,-0.18366742134094238,-0.018557071685791016
566,816000000,imu1_frame,0.3609897163043978,-0.07591712289335902,-0.888037667181899,0.27443053190233047,-0.052734375,0.0546875,0.060546875,-0.019872188568115234,-0.14100408554077148,-0.052982330322265625
566,840000000,imu1_frame,0.36192154679325084,-0.074082553462451,-0.8880336730160431,0.27371657755587103,0.03515625,0.037109375,0.0234375,0.007152080535888672,-0.10910201072692871,-0.04519319534301758
566,865000000,imu1_frame,0.3625569295659942,-0.0722333990773539,-0.8881068641092263,0.2731318487534661,0.037109375,0.033203125,0.03515625,0.029426097869873047,-0.07636594772338867,-0.04148054122924805
566,891000000,imu1_frame,0.36350537684550305,-0.07500412706754499,-0.8871884479955178,0.2741074235962046,0.037109375,0.033203125,0.03515625,0.02311086654663086,0.09537124633789062,-0.020059585571289062
566,916000000,imu1_frame,0.36456598882324603,-0.07759602809828686,-0.8862566411780246,0.27499029470973124,0.037109375,0.033203125,0.03515625,0.019636154174804688,0.11408090591430664,-0.03239107131958008
566,940000000,imu1_frame,0.3654414050105452,-0.07951669130800926,-0.8853600723353833,0.27616519987433313,-0.017578125,0.046875,0.0390625,0.016249656677246094,0.06910157203674316,-0.013999462127685547
566,966000000,imu1_frame,0.36628323843493693,-0.08191397311029053,-0.8844222174192901,0.2773518191504209,0.005859375,0.048828125,0.03515625,0.009265899658203125,0.01607346534729004,0.00560760498046875
566,991000000,imu1_frame,0.3681007842818482,-0.08358143645623518,-0.8832870439098586,0.27806465822175946,0.005859375,0.048828125,0.03515625,0.022294044494628906,-0.02586984634399414,-0.001979827880859375
567,15000000,imu1_frame,0.3669938947807009,-0.08221403192649684,-0.8837583699950067,0.2784375650156592,-0.01953125,0.0390625,0.03515625,0.013478279113769531,0.00027632713317871094,-0.02227783203125
567,41000000,imu1_frame,0.36707888312714027,-0.07968763565735053,-0.884026016658412,0.27821030922044165,-0.01953125,0.0390625,0.03515625,0.030949115753173828,-0.029534578323364258,-0.029064178466796875
567,66000000,imu1_frame,0.3663480097188512,-0.07733139895751587,-0.8844487687400487,0.27849482218619803,-0.0546875,0.048828125,0.03515625,0.033750057220458984,0.012468576431274414,-0.04676532745361328
567,91000000,imu1_frame,0.3681492396404491,-0.07509222679177273,-0.8839510057954889,0.27831261951402025,-0.0546875,0.048828125,0.03515625,-0.004426002502441406,0.00439143180847168,0.007549285888671875
567,116000000,imu1_frame,0.3666829502315788,-0.07540519013286458,-0.8841029836061575,0.27967764603053774,-0.0546875,0.048828125,0.03515625,0.006741046905517578,-0.003083944320678711,-0.012560844421386719
567,141000000,imu1_frame,0.3691815569712604,-0.07540960899171807,-0.8828842294011895,0.2802388380268873,-0.064453125,0.064453125,0.029296875,0.040207862854003906,-0.01903557777404785,0.0233612060546875
567,166000000,imu1_frame,0.367687475427458,-0.07425531803090238,-0.8832642834357088,0.28131170214677464,-0.076171875,0.060546875,0.03515625,0.02199554443359375,0.0007650852203369141,-0.0015010833740234375
567,191000000,imu1_frame,0.36998288548943736,-0.07298034575566562,-0.8823232116596503,0.2815888558606207,-0.076171875,0.060546875,0.03515625,-0.016783714294433594,0.009546518325805664,-0.01117849349975586
567,216000000,imu1_frame,0.3722533283461518,-0.07249019016174389,-0.8812286205559926,0.2821502262598925,-0.076171875,0.060546875,0.03515625,0.016311168670654297,0.0029692649841308594,0.020368099212646484
567,241000000,imu1_frame,0.3709504341086909,-0.07251707346071475,-0.8813951717066044,0.2833365503840841,-0.033203125,0.064453125,0.041015625,-0.0066585540771484375,0.0008013248443603516,0.0015611648559570312
567,266000000,imu1_frame,0.37352514711157525,-0.07104648783445881,-0.8804645511733045,0.28321994133333156,-0.0390625,0.06640625,0.03515625,0.039144039154052734,0.014059305191040039,0.03487062454223633
567,291000000,imu1_frame,0.3740328482133989,-0.07284902946256584,-0.8796275757998973,0.2846889096121077,-0.0390625,0.06640625,0.03515625,0.029706954956054688,-0.029330730438232422,-0.022945880889892578
567,316000000,imu1_frame,0.37329496003731966,-0.07085048439499322,-0.8799978019861777,0.2850174559061722,-0.03515625,0.056640625,0.041015625,0.03043508529663086,0.0062029361724853516,-0.039316654205322266
567,341000000,imu1_frame,0.3736165272959151,-0.07275894089881224,-0.8792108422608931,0.28653991327826334,-0.03515625,0.056640625,0.041015625,-0.01778125762939453,0.0358278751373291,0.04102611541748047
567,366000000,imu1_frame,0.37302344075428445,-0.07406057235638325,-0.8787335675319318,0.2884369282229368,-0.072265625,0.05859375,0.052734375,-0.04146718978881836,0.0036249160766601562,0.0361170768737793
567,390000000,imu1_frame,0.3737761963923192,-0.07115087433842687,-0.8786338706077091,0.2884985780073853,-0.072265625,0.05859375,0.052734375,-0.052025794982910156,-0.1032857894897461,-0.00022363662719726562
567,415000000,imu1_frame,0.3730176527638142,-0.06861611555202404,-0.8789777626999751,0.2890462801906851,-0.072265625,0.05859375,0.052734375,-0.009888648986816406,-0.17322945594787598,0.14195013046264648
567,441000000,imu1_frame,0.3720622176042805,-0.06705946615805979,-0.8794415615491469,0.28923221475136407,0.005859375,0.0234375,0.052734375,-0.014379024505615234,-0.14304590225219727,0.12390708923339844
567,466000000,imu1_frame,0.371209319047833,-0.06444097557308605,-0.8796961636358019,0.29014765517523233,-0.091796875,0.0625,0.076171875,-0.013544082641601562,-0.1001729965209961,0.10478401184082031
567,490000000,imu1_frame,0.3728862567778478,-0.06492457636101641,-0.8784649792052519,0.29161604757019727,-0.091796875,0.0625,0.076171875,-0.0374298095703125,0.10337090492248535,-0.05713844299316406
567,516000000,imu1_frame,0.37513359405951896,-0.0643832423309253,-0.8771738538525023,0.29273813354685196,-0.091796875,0.0625,0.076171875,-0.08476877212524414,0.05419635772705078,0.0016918182373046875
567,541000000,imu1_frame,0.37741470875466987,-0.06432634057694123,-0.8757072342988683,0.2942058791394798,-0.076171875,0.07421875,0.111328125,-0.05799579620361328,0.03313469886779785,0.03510475158691406
567,566000000,imu1_frame,0.3795139213428285,-0.06429058895401636,-0.8743478845423955,0.29555317706831175,-0.07421875,0.052734375,0.10546875,-0.033631324768066406,0.013386249542236328,0.06607532501220703
567,591000000,imu1_frame,0.3779906859297679,-0.06304657005970402,-0.8745486730317606,0.29717467902302375,-0.07421875,0.052734375,0.10546875,0.06429243087768555,-0.04695749282836914,-0.025936126708984375
567,616000000,imu1_frame,0.3764715588084873,-0.06153920390422639,-0.8748842685472275,0.29842856505322113,-0.078125,0.048828125,0.07421875,0.04803943634033203,-0.02199530601501465,-0.052010536193847656
567,640000000,imu1_frame,0.3754500469259541,-0.05931843285749311,-0.8751917752891382,0.2992623301601404,-0.078125,0.048828125,0.07421875,0.005742549896240234,-0.136871337890625,0.11522340774536133
567,666000000,imu1_frame,0.37450099139500564,-0.05784159413617033,-0.8755661374498623,0.2996452842663688,0.001953125,0.037109375,0.0625,0.0004572868347167969,-0.109283447265625,0.097930908203125
567,691000000,imu1_frame,0.37671475021305884,-0.05727405910621954,-0.874626040456196,0.2997248212633156,0.001953125,0.037109375,0.0625,-0.004493236541748047,-0.03389859199523926,-0.0583806037902832
567,716000000,imu1_frame,0.37602576919643776,-0.05561909218575435,-0.8749493225816485,0.29995803106197066,0.001953125,0.037109375,0.0625,0.07375383377075195,-0.12086367607116699,-0.03697538375854492
567,741000000,imu1_frame,0.3751849925089349,-0.05426673797790285,-0.8755604448015546,0.29947495729060886,0.0390625,0.009765625,0.013671875,0.07229900360107422,-0.08991122245788574,-0.05222606658935547
567,766000000,imu1_frame,0.3744907614733607,-0.05285028368508308,-0.8761199901746198,0.2989603316527675,0.0390625,0.0234375,0.009765625,0.07333517074584961,-0.05841469764709473,-0.06536531448364258
567,790000000,imu1_frame,0.37559133383318094,-0.05521059706887663,-0.8753209467893728,0.2994932053193635,0.0390625,0.0234375,0.009765625,0.03282642364501953,0.23546266555786133,-0.08333301544189453
567,816000000,imu1_frame,0.3764684419976247,-0.057910467030170366,-0.8745340376253385,0.3001801242969824,0.0390625,0.0234375,0.009765625,0.06452798843383789,0.2580907344818115,-0.06056070327758789
567,840000000,imu1_frame,0.37723609724346857,-0.05994858374815899,-0.8738512925002533,0.3008039441874775,0.005859375,0.03515625,-0.0078125,0.05992841720581055,0.21494483947753906,-0.04455423355102539
567,865000000,imu1_frame,0.3780682072259589,-0.062279936365260885,-0.8731344520967319,0.3013666683178954,0.025390625,0.0390625,-0.009765625,0.05445289611816406,0.16694283485412598,-0.026699066162109375
567,890000000,imu1_frame,0.3800400065227413,-0.06376670424731896,-0.8721601609025614,0.3013968390777309,0.025390625,0.0390625,-0.009765625,-0.006081581115722656,0.017676591873168945,0.006171226501464844
567,915000000,imu1_frame,0.38096989061491127,-0.06570136497050133,-0.8713735832458563,0.3020816967430368,-0.0078125,0.0390625,-0.0078125,-0.008335113525390625,-0.024889469146728516,0.024913311004638672
567,940000000,imu1_frame,0.3796168617694784,-0.06602909010192878,-0.8717452787737521,0.3026406556566339,-0.0078125,0.0390625,-0.0078125,-0.031212806701660156,0.008009910583496094,0.005672454833984375
567,966000000,imu1_frame,0.3820701622627742,-0.0651154645701902,-0.8708934947596304,0.3022033887428519,-0.01953125,0.046875,0.001953125,0.01009225845336914,0.013469696044921875,0.0398101806640625
567,991000000,imu1_frame,0.38121448040490863,-0.06317844087202092,-0.8714663593000614,0.302043687480623,-0.01953125,0.046875,0.001953125,0.011523246765136719,-0.06134796142578125,0.06128978729248047
568,16000000,imu1_frame,0.3832148029051749,-0.06399117768015854,-0.8704334520077947,0.3023196150421745,-0.01953125,0.046875,0.001953125,0.03262901306152344,-0.009605169296264648,-0.024028778076171875
568,41000000,imu1_frame,0.38187263633357593,-0.06529678885704397,-0.8706567466452859,0.30309478468896384,0.005859375,0.015625,0.0,0.0028438568115234375,-0.030007600784301758,-0.04075908660888672
568,65000000,imu1_frame,0.3833962386397838,-0.06395895469764068,-0.8704100423614411,0.30216375439023996,0.015625,0.001953125,-0.001953125,0.03594398498535156,-0.008941173553466797,-0.02138233184814453
568,90000000,imu1_frame,0.38217429523453633,-0.06258558862659286,-0.8711847869915889,0.3017663319071037,0.015625,0.001953125,-0.001953125,-0.00945138931274414,-0.015437841415405273,0.031188011169433594
568,115000000,imu1_frame,0.383490233691855,-0.06442818049908638,-0.8703740260403326,0.3020485143398096,0.015625,0.001953125,-0.001953125,-0.004423618316650391,-0.01656651496887207,0.020263195037841797
568,141000000,imu1_frame,0.38234120241843034,-0.06270441195959196,-0.8710662932260136,0.30187228170125713,-0.005859375,0.01171875,0.013671875,-0.008324146270751953,0.01996898651123047,-0.0011820793151855469
568,165000000,imu1_frame,0.38352618040263936,-0.0644746510016915,-0.8702639562380604,0.3023099978446815,0.005859375,0.00390625,0.005859375,-0.005236625671386719,-0.019392967224121094,0.020920753479003906
