timestamp_sec,timestamp_nsec,frame_id,orientation_x,orientation_y,orientation_z,orientation_w,angular_velocity_x,angular_velocity_y,angular_velocity_z,linear_acceleration_x,linear_acceleration_y,linear_acceleration_z
553,466000000,imu2_frame,0.1982531798830588,0.11016323959194535,-0.9475872475097286,0.2250292106945221,-0.005859375,0.00390625,0.01171875,0.05127239227294922,-0.007321000099182129,-0.08238983154296875
553,491000000,imu2_frame,0.19716780375345158,0.11237339168042108,-0.9476509981233773,0.22462115608518693,-0.005859375,0.00390625,0.01171875,0.040242671966552734,-0.07708287239074707,-0.03819561004638672
553,516000000,imu2_frame,0.19693165398849086,0.11481545228135788,-0.9475035299377053,0.2242150671350442,-0.005859375,0.00390625,0.01171875,0.009945869445800781,-0.029580235481262207,-0.02917194366455078
553,541000000,imu2_frame,0.1965413574364599,0.11747518068093951,-0.947362460215343,0.22377543590784663,-0.0234375,0.00390625,0.005859375,0.012824535369873047,0.02275669574737549,-0.020096778869628906
553,566000000,imu2_frame,0.1948744112988274,0.11628167392998978,-0.9477754177792224,0.22410777224896855,-0.0234375,0.00390625,0.005859375,0.014251708984375,0.007629275321960449,-0.03829669952392578
553,591000000,imu2_frame,0.19727289698756972,0.1154325528752878,-0.9472839886837884,0.2245256658695345,0.0078125,0.00390625,0.009765625,0.05398893356323242,-0.021337509155273438,-0.023763656616210938
553,615000000,imu2_frame,0.19617215828127865,0.11734775269306251,-0.9473831574156337,0.22407842890010077,0.0078125,0.00390625,0.009765625,0.006215572357177734,0.020900845527648926,-0.023512840270996094
553,640000000,imu2_frame,0.19472895631383477,0.11913382524118211,-0.9475622876390942,0.22363692964377394,0.0078125,0.00390625,0.009765625,0.022124290466308594,-0.01572859287261963,-0.026284217834472656
553,665000000,imu2_frame,0.19652280588822457,0.11730067695373568,-0.9472787903009446,0.22423699828082264,0.0078125,0.00390625,0.009765625,0.04761648178100586,-0.021419286727905273,-0.06010150909423828
553,690000000,imu2_frame,0.19501608998202694,0.11873499317499167,-0.9474466939485336,0.2240881259010618,0.01953125,0.005859375,0.03515625,0.026308536529541016,0.012704014778137207,-0.06501293182373047
553,715000000,imu2_frame,0.19729284176668768,0.11731728087190706,-0.9469716341253669,0.2248486476685572,0.01953125,0.005859375,0.03515625,-0.012064456939697266,0.011508584022521973,-0.01503753662109375
553,740000000,imu2_frame,0.1968015353552641,0.11934265629437082,-0.9468710637756134,0.22463676158379006,0.01953125,0.005859375,0.03515625,0.02593231201171875,-0.026383280754089355,-0.048514366149902344
553,766000000,imu2_frame,0.1961087950535111,0.12144793705144913,-0.946869885181802,0.22411862846360714,0.021484375,0.005859375,0.01171875,0.02112293243408203,0.01760876178741455,-0.04392433166503906
553,790000000,imu2_frame,0.1968874753236788,0.1189981834852804,-0.946799300581406,0.22504630369422096,0.015625,0.01171875,0.0390625,0.026706218719482422,-0.034873366355895996,-0.049452781677246094
553,816000000,imu2_frame,0.1981403168487325,0.11641939465031832,-0.9466163892330389,0.22606271480220114,0.015625,0.01171875,0.0390625,0.040143489837646484,0.06378328800201416,-0.09461593627929688
553,841000000,imu2_frame,0.1965000956953963,0.11500235571240458,-0.9470022564736928,0.22660294968519618,0.015625,0.01171875,0.0390625,0.04140472412109375,0.004546642303466797,-0.031642913818359375
553,866000000,imu2_frame,0.194489808702795,0.1145399892682353,-0.9474620238426668,0.22664955006604523,0.001953125,0.01171875,0.009765625,0.0039958953857421875,0.005744576454162598,-0.04908180236816406
553,890000000,imu2_frame,0.1967076016401804,0.11509317449336245,-0.947013431846817,0.22632993735633483,0.01171875,0.009765625,-0.025390625,0.04503297805786133,0.0063703060150146484,-0.02965068817138672
553,916000000,imu2_frame,0.1973059473625276,0.11743461230394403,-0.9468067862247649,0.22546925406167928,0.01171875,0.009765625,-0.025390625,0.028542518615722656,0.010850071907043457,-0.05346107482910156
553,940000000,imu2_frame,0.1963759815208539,0.11612918626598583,-0.9471995319196713,0.2253076401502549,-0.01953125,0.017578125,-0.04296875,0.006763458251953125,-0.007685184478759766,-0.06656646728515625
553,965000000,imu2_frame,0.19755734220884796,0.11434265559386889,-0.947153371258873,0.225382663406194,-0.01953125,0.017578125,-0.04296875,0.02073383331298828,-0.007303953170776367,-0.02646160125732422
553,991000000,imu2_frame,0.1959031270398915,0.11599343423670094,-0.9473918996969213,0.2249801689452362,0.001953125,0.013671875,0.009765625,-0.0026111602783203125,0.03263139724731445,-0.03175067901611328
554,16000000,imu2_frame,0.19601812128415477,0.11361958671392978,-0.9475098062535507,0.22559399969091593,0.001953125,0.013671875,0.009765625,0.026051998138427734,0.06420016288757324,-0.002460479736328125
554,40000000,imu2_frame,0.19761403014453807,0.11524138218479486,-0.9470253923884271,0.22541301003650455,0.001953125,0.013671875,0.009765625,-0.09189891815185547,-0.06945347785949707,-0.025903701782226562
554,65000000,imu2_frame,0.19915859175674053,0.11685299154298762,-0.9465542068484313,0.2252029466824616,0.009765625,0.005859375,0.009765625,-0.05851888656616211,-0.0466839075088501,-0.006613731384277344
554,90000000,imu2_frame,0.20069336672656515,0.11818983968887918,-0.9460847083709626,0.22511565679202336,0.03515625,0.00390625,0.02734375,-0.026280879974365234,-0.029447555541992188,0.011524200439453125
554,115000000,imu2_frame,0.20054932150706495,0.11540103747121414,-0.9462842789045929,0.22585091031837337,0.03515625,0.00390625,0.02734375,0.039389610290527344,0.10859858989715576,0.04063987731933594
554,141000000,imu2_frame,0.1992555554989814,0.11312492794307534,-0.9467022064665536,0.22639546495463475,0.03515625,0.00390625,0.02734375,0.008249282836914062,-0.0032050609588623047,0.01645660400390625
554,166000000,imu2_frame,0.19693206968104687,0.11289494840357005,-0.947189066950935,0.22650686966339798,-0.01171875,-0.01171875,0.01171875,-0.033644676208496094,0.0034673213958740234,-0.0025529861450195312
554,191000000,imu2_frame,0.1990742190567245,0.11303338761609757,-0.9467249479602566,0.22650558823268363,0.0078125,-0.01171875,-0.0078125,0.004775047302246094,-0.004487872123718262,0.014629364013671875
554,216000000,imu2_frame,0.19849868678353838,0.11065420746093318,-0.9470338921818514,0.2268936419895829,0.0078125,-0.01171875,-0.0078125,0.024729251861572266,-0.007732272148132324,-0.07836246490478516
554,241000000,imu2_frame,0.19715770413567954,0.10863434772153592,-0.9474861510604676,0.2271506366790223,0.0078125,-0.01171875,-0.0078125,0.0674581527709961,0.035013437271118164,-0.09348392486572266
554,269000000,imu2_frame,0.19546159457239787,0.10805439362142677,-0.9476032897099032,0.22840100349449108,-0.130859375,-0.005859375,0.03515625,0.03656196594238281,0.027274489402770996,-0.10895729064941406
554,290000000,imu2_frame,0.19684750762177633,0.1076162732835023,-0.947071875053587,0.22961850959830796,-0.083984375,-0.01953125,0.068359375,0.060761451721191406,0.0071599483489990234,-0.10018348693847656
554,316000000,imu2_frame,0.19664813147073887,0.11087762890596788,-0.9466043382878666,0.2301649202894471,-0.083984375,-0.01953125,0.068359375,-0.08125448226928711,-0.20421576499938965,-0.009664535522460938
554,341000000,imu2_frame,0.1966073842917411,0.1127940977610777,-0.9464399721658883,0.22994435639705693,0.0234375,-0.033203125,0.025390625,-0.07450485229492188,-0.16808617115020752,-0.0015993118286132812
554,366000000,imu2_frame,0.19779635304401916,0.11408092522367323,-0.9460378925873847,0.22994445201269018,0.0234375,-0.033203125,0.025390625,0.02983856201171875,0.005727291107177734,-0.06485271453857422
554,391000000,imu2_frame,0.1974353035656639,0.11657585888709027,-0.9457185740295166,0.2303166272031809,-0.02734375,-0.03125,0.068359375,0.03401947021484375,0.051331162452697754,-0.05638599395751953
554,416000000,imu2_frame,0.19553351735493546,0.11850850614407149,-0.9457776672169329,0.23070973485313595,-0.02734375,-0.03125,0.068359375,0.08291816711425781,-0.061995625495910645,-0.10508251190185547
554,441000000,imu2_frame,0.19735152593354272,0.11916386300422507,-0.9450875124873134,0.23165047529878888,-0.02734375,-0.03125,0.068359375,0.005702495574951172,0.014800786972045898,-0.12714576721191406
554,465000000,imu2_frame,0.1980314858613293,0.1211644720196905,-0.9445640655416733,0.23216680946063184,-0.02734375,-0.03125,0.068359375,-0.012539863586425781,-0.032681822776794434,-0.06952285766601562
554,491000000,imu2_frame,0.19918621492240676,0.12256339847301402,-0.9438781963582226,0.2332316779067088,0.021484375,-0.0234375,0.119140625,0.015007495880126953,-0.01788318157196045,-0.053893089294433594
554,515000000,imu2_frame,0.19951892681096237,0.12399249722944211,-0.9433438407981739,0.23435113932549648,0.037109375,-0.01953125,0.1484375,0.028300762176513672,0.0013091564178466797,-0.044409751892089844
554,540000000,imu2_frame,0.19880440009632253,0.12099841907813971,-0.9433554229150778,0.2364672052096168,0.037109375,-0.01953125,0.1484375,0.11977338790893555,0.09743714332580566,-0.06820964813232422
554,565000000,imu2_frame,0.19788559257639288,0.11730273560816158,-0.9435196634773444,0.23843658507269955,0.103515625,-0.033203125,0.15234375,0.09090089797973633,0.026294827461242676,-0.09254837036132812
554,591000000,imu2_frame,0.19650380666195114,0.11245218989657246,-0.9438635565402681,0.24054593239126673,0.248046875,-0.0390625,0.208984375,0.048770904541015625,-0.06406974792480469,-0.1249837875366211
554,615000000,imu2_frame,0.19775816743107136,0.10681560665538373,-0.9436490026807534,0.24291704989309923,0.248046875,-0.0390625,0.208984375,0.04951190948486328,0.19923126697540283,-0.1394805908203125
554,641000000,imu2_frame,0.19814168146927083,0.10560530735617663,-0.9433408550263294,0.24432647085596657,0.248046875,-0.0390625,0.208984375,0.017383575439453125,-0.17476308345794678,-0.1024789810180664
554,665000000,imu2_frame,0.1983313232809541,0.10599207446506904,-0.943009163834161,0.2452836791982165,0.1328125,-0.009765625,0.158203125,0.023426532745361328,-0.172934889793396,-0.0994100570678711
554,691000000,imu2_frame,0.19852979010353075,0.10537863057064645,-0.9427301980168277,0.24645697475960454,0.20703125,-0.025390625,0.18359375,0.025477886199951172,-0.19032180309295654,-0.10040473937988281
554,715000000,imu2_frame,0.198742904866419,0.1002826240986401,-0.9426905165664486,0.2485543060275372,0.20703125,-0.025390625,0.18359375,0.0830531120300293,0.050273120403289795,-0.07626152038574219
554,740000000,imu2_frame,0.1980684151334454,0.09610295837595327,-0.9423344216241127,0.25206935978072326,0.12109375,-0.021484375,0.2890625,0.05554771423339844,-0.03774541616439819,-0.09753704071044922
554,766000000,imu2_frame,0.19882572957224612,0.09130802258919528,-0.9416228324342465,0.25588594277416293,0.12109375,-0.021484375,0.2890625,0.04990720748901367,0.0455014705657959,-0.07016754150390625
554,790000000,imu2_frame,0.19876815800849673,0.0888194771691183,-0.9406037875461841,0.2605126382559718,-0.056640625,-0.00390625,0.353515625,0.040477752685546875,-0.019759953022003174,-0.079376220703125
554,815000000,imu2_frame,0.19846927944681017,0.0909809988865262,-0.9394117758364552,0.2642686481164034,-0.056640625,-0.00390625,0.353515625,-0.02619171142578125,-0.18659627437591553,0.03136444091796875
554,840000000,imu2_frame,0.1995316173284386,0.08848680425163022,-0.9380544234189643,0.2690931397560061,-0.056640625,-0.00390625,0.353515625,-0.016510963439941406,0.0456392765045166,0.03088092803955078
554,866000000,imu2_frame,0.2005832711471829,0.08587155040313312,-0.9366211290660398,0.27410452158677523,-0.056640625,-0.00390625,0.353515625,-0.008193016052246094,0.12244260311126709,0.0028486251831054688
554,890000000,imu2_frame,0.20135969369122642,0.08192800814391245,-0.9349377747077813,0.28041653421759655,0.02734375,-0.056640625,0.517578125,-0.011623382568359375,0.018542945384979248,-0.003985404968261719
554,915000000,imu2_frame,0.19986757728171517,0.08204795380767425,-0.9335582232113682,0.2859897353087074,0.02734375,-0.056640625,0.517578125,0.07859945297241211,-0.29975923895835876,0.012041091918945312
554,941000000,imu2_frame,0.1983360204376334,0.08219477393311289,-0.9320797474124152,0.2917776321081782,0.02734375,-0.056640625,0.517578125,0.0941009521484375,-0.39145776629447937,0.039653778076171875
554,966000000,imu2_frame,0.19700361754668974,0.08290869232415464,-0.9312723978687579,0.29503803886683866,0.033203125,-0.041015625,0.32421875,0.07607030868530273,-0.3847152292728424,0.0316619873046875
554,991000000,imu2_frame,0.19571596663966515,0.08359317420651714,-0.930381241179498,0.29849319538253616,0.03515625,-0.046875,0.341796875,0.058812618255615234,-0.3795037269592285,0.024003982543945312
555,15000000,imu2_frame,0.19451100163038026,0.08420991516030477,-0.9293725894438005,0.30222632318175985,0.033203125,-0.0546875,0.37890625,0.04280662536621094,-0.37711119651794434,0.01683521270751953
555,40000000,imu2_frame,0.19549908426465767,0.08475584520254886,-0.9278213329567265,0.30617663017625174,0.033203125,-0.0546875,0.37890625,0.025516033172607422,-0.043042153120040894,-0.08320808410644531
555,65000000,imu2_frame,0.1950328845200233,0.08590116024017817,-0.926692591364148,0.3095545278880456,0.01953125,-0.05859375,0.3359375,0.025295257568359375,-0.03425219655036926,-0.08294391632080078
555,91000000,imu2_frame,0.19474718814051964,0.08664940081781668,-0.9256471086702073,0.3126385201151006,0.060546875,-0.064453125,0.30859375,0.025890350341796875,-0.03248056769371033,-0.0825967788696289
555,116000000,imu2_frame,0.19649310491201155,0.0835143093678499,-0.9242615467227163,0.316474980215783,0.060546875,-0.064453125,0.30859375,-0.038866519927978516,0.035470545291900635,-0.07576847076416016
555,141000000,imu2_frame,0.19871781881745787,0.08152268237703399,-0.9226362331095744,0.3203243076880997,0.056640625,-0.0546875,0.33203125,-0.011181831359863281,-0.031816452741622925,-0.06500816345214844
555,166000000,imu2_frame,0.20033996102754334,0.0780980935557425,-0.9211347949241057,0.3244615191029076,0.056640625,-0.0546875,0.33203125,-0.002921581268310547,-0.008947446942329407,-0.06303691864013672
555,190000000,imu2_frame,0.2018092406006612,0.07827378193327424,-0.9195789239019162,0.3279037178585205,0.013671875,-0.056640625,0.3359375,0.023765087127685547,-0.031062252819538116,-0.05095386505126953
555,215000000,imu2_frame,0.2000824041302717,0.07897240854849641,-0.9186619754919705,0.33134659351001383,0.013671875,-0.056640625,0.3359375,0.07708358764648438,-0.21372215449810028,-0.06627178192138672
555,241000000,imu2_frame,0.19744631178031236,0.07774939156303697,-0.9178828584419018,0.3353521198001482,0.013671875,-0.056640625,0.3359375,0.024919986724853516,-0.043847352266311646,-0.0514373779296875
555,266000000,imu2_frame,0.19706495314481717,0.0741278418031926,-0.9166487011148824,0.3397434709542346,0.013671875,-0.056640625,0.3359375,-0.004063606262207031,-0.04690484516322613,-0.033881187438964844
555,291000000,imu2_frame,0.19703299468450772,0.07447351925669145,-0.9156476412654171,0.3423756576923307,0.095703125,-0.0625,0.291015625,-0.0023818016052246094,-0.05209379270672798,-0.033127784729003906
555,315000000,imu2_frame,0.1953075346594181,0.07109342473591387,-0.9150377185799146,0.3456973610553661,0.095703125,-0.0625,0.291015625,0.059710025787353516,-0.03644819185137749,-0.08331584930419922
555,340000000,imu2_frame,0.19440996625786236,0.07130909936791224,-0.9142011704072023,0.34836187706615573,0.095703125,-0.0625,0.291015625,0.010473251342773438,-0.0768793523311615,-0.06221294403076172
555,366000000,imu2_frame,0.19389650650369242,0.07225039657274407,-0.9135468391285468,0.3501659573387823,0.068359375,-0.05078125,0.20703125,0.007770538330078125,-0.06432382017374039,-0.06347084045410156
555,391000000,imu2_frame,0.19203532198141476,0.06932075868264789,-0.9131868448307386,0.35271355794077014,0.068359375,-0.05078125,0.20703125,-0.008236408233642578,-0.03973215073347092,-0.042644500732421875
555,415000000,imu2_frame,0.1922919249579276,0.07050329134835875,-0.9125657326885463,0.3539447485521433,0.046875,-0.046875,0.162109375,0.003828287124633789,-0.025876060128211975,-0.0374908447265625
555,440000000,imu2_frame,0.19224997634534097,0.07189772868473383,-0.9120848213514375,0.3549252623659075,0.044921875,-0.04296875,0.13671875,0.012302398681640625,-0.005072485655546188,-0.033924102783203125
555,466000000,imu2_frame,0.19270762369643038,0.0683607782256143,-0.9114556594463402,0.3569862135053687,0.044921875,-0.04296875,0.13671875,-0.0036842823028564453,0.03727655112743378,-0.0011129379272460938
555,490000000,imu2_frame,0.19357274392249568,0.06544236471205206,-0.9107989063372957,0.3587370094177583,0.033203125,-0.041015625,0.125,-0.00888514518737793,-0.02822035551071167,-0.0022144317626953125
555,516000000,imu2_frame,0.1957297737406294,0.0647251112212369,-0.9098494453717065,0.36010346069655963,0.033203125,-0.041015625,0.125,0.022564411163330078,-0.023481279611587524,-0.06575489044189453
555,541000000,imu2_frame,0.19682405565053812,0.06180356355515664,-0.9091072712754782,0.3618902871910373,0.033203125,-0.041015625,0.125,0.020780563354492188,0.022365659475326538,-0.09582996368408203
555,565000000,imu2_frame,0.19572495993104821,0.05887942078032772,-0.9088335023031517,0.36365728228642635,0.033203125,-0.041015625,0.125,0.059694528579711914,0.010162651538848877,-0.08381366729736328
555,591000000,imu2_frame,0.19420404606747513,0.05625141210080189,-0.9086423721919559,0.3653622949690662,0.0234375,-0.025390625,0.111328125,0.015147924423217773,-0.032396018505096436,-0.1013193130493164
555,615000000,imu2_frame,0.19574272997994452,0.057130468804530175,-0.9079222881873609,0.3661939538097261,0.0234375,-0.025390625,0.111328125,0.007829427719116211,-0.03175434470176697,-0.11499404907226562
555,640000000,imu2_frame,0.19794688024778423,0.056459717929389745,-0.907010184928125,0.367371552094268,0.0234375,-0.025390625,0.111328125,0.03991556167602539,-0.02593618631362915,-0.06827163696289062
555,666000000,imu2_frame,0.1993132048257817,0.0537221207381662,-0.906201130008457,0.3690361663805669,0.0234375,-0.025390625,0.111328125,0.004025697708129883,-0.01740124821662903,-0.02839946746826172
555,691000000,imu2_frame,0.1993533200202861,0.055673269696630494,-0.9056511723029016,0.37007390470628426,0.00390625,-0.021484375,0.13671875,0.017800569534301758,0.012228608131408691,-0.02391338348388672
555,716000000,imu2_frame,0.19704522627294999,0.05456042745496903,-0.9055122663213077,0.3718116110352421,0.00390625,-0.021484375,0.13671875,0.20070219039916992,-0.03668197989463806,-0.005127906799316406
555,741000000,imu2_frame,0.19483069077685977,0.053165189308798246,-0.9053362617905387,0.3736050289601366,0.00390625,-0.021484375,0.13671875,0.1525566577911377,-0.013233602046966553,-0.021123886108398438
555,765000000,imu2_frame,0.19262742119162693,0.05171750340417747,-0.9052188850361826,0.3752315906484326,0.029296875,-0.03125,0.13671875,0.10419487953186035,-0.029005825519561768,-0.04077911376953125
555,791000000,imu2_frame,0.1938256463790769,0.04872233394559178,-0.9043172001088923,0.3771845099786586,0.029296875,-0.03125,0.13671875,-0.02315211296081543,0.045484185218811035,0.0014495849609375
555,815000000,imu2_frame,0.19528251649640074,0.046285218494560174,-0.9033017010870336,0.3791681079851197,0.02734375,-0.041015625,0.162109375,-0.017454862594604492,-0.016827166080474854,0.00800323486328125
555,840000000,imu2_frame,0.19560611483394041,0.04774957136212394,-0.9025616387741662,0.380579445697736,0.0234375,-0.04296875,0.171875,-0.002397298812866211,0.0005431771278381348,0.0131683349609375
555,866000000,imu2_frame,0.19350949271387655,0.04525285204650717,-0.902143744711134,0.3829398379508815,0.0234375,-0.04296875,0.171875,0.05975961685180664,-0.002054274082183838,-0.007312774658203125
555,891000000,imu2_frame,0.19117253446212149,0.04326779764931508,-0.901843541647462,0.38504439502824767,0.04296875,-0.046875,0.171875,0.0043485164642333984,-0.027684926986694336,-0.028319358825683594
555,916000000,imu2_frame,0.1906695202214219,0.04414475116410737,-0.9013639874888364,0.38631507485654315,0.078125,-0.056640625,0.16796875,0.0013728141784667969,-0.013586103916168213,-0.030579566955566406
555,941000000,imu2_frame,0.1914390399291453,0.04033045110536577,-0.9004576354431361,0.38845925845164375,0.078125,-0.056640625,0.16796875,0.05864238739013672,0.1351296305656433,-0.18738079071044922
555,965000000,imu2_frame,0.19243615346143458,0.03680696408292681,-0.8995263380006974,0.39046887389268364,0.078125,-0.056640625,0.16796875,0.012221574783325195,0.17449885606765747,-0.1461496353149414
555,991000000,imu2_frame,0.19365657368031924,0.03379043310703507,-0.8981890370975345,0.39320705962462293,0.021484375,-0.0390625,0.208984375,0.0074002742767333984,0.10089600086212158,-0.14110183715820312
556,16000000,imu2_frame,0.19524464469027236,0.030992460738797505,-0.8968111897117773,0.3957886887025321,0.037109375,-0.033203125,0.21484375,0.010079383850097656,0.028879225254058838,-0.13257408142089844
556,41000000,imu2_frame,0.19563330451738206,0.03226964124770702,-0.8958674641417143,0.3976276739735903,0.037109375,-0.033203125,0.21484375,0.02432990074157715,-0.03749269247055054,-0.09286785125732422
556,65000000,imu2_frame,0.19373879300403596,0.029918237048954778,-0.8952127341775327,0.40020537195745903,0.037109375,-0.033203125,0.21484375,0.007083892822265625,-0.03503274917602539,-0.06717205047607422
556,91000000,imu2_frame,0.1941039710982259,0.03122898297299515,-0.8941194168972356,0.4023665832965242,0.037109375,-0.03125,0.236328125,0.02087712287902832,-0.023814499378204346,-0.06284141540527344
556,116000000,imu2_frame,0.19350665017451305,0.0328023286046919,-0.8931782431095676,0.4046131604533579,0.009765625,-0.029296875,0.2421875,0.02070164680480957,-0.0007219314575195312,-0.06539535522460938
556,141000000,imu2_frame,0.1928798447625681,0.029572053705150265,-0.8919825748914946,0.4077866417797019,0.009765625,-0.029296875,0.2421875,0.020602941513061523,-0.02575695514678955,-0.0740671157836914
556,165000000,imu2_frame,0.1930127964525695,0.030573909147529502,-0.8908399053618202,0.4101409020080063,0.0546875,-0.02734375,0.2734375,0.02799391746520996,-0.018911123275756836,-0.07188796997070312
556,191000000,imu2_frame,0.19411737316057456,0.02678372370679211,-0.8891373126563425,0.41356488828706645,0.0546875,-0.02734375,0.2734375,0.01217031478881836,0.08375740051269531,-0.0677804946899414
556,215000000,imu2_frame,0.19544235743932972,0.023206934287084376,-0.8871864989192216,0.41732941335952584,0.0625,-0.03125,0.337890625,0.0005364418029785156,-0.004384517669677734,-0.061186790466308594
556,241000000,imu2_frame,0.19733928264873796,0.022648514806184284,-0.8851817090373708,0.4207108202630819,0.015625,-0.05078125,0.3203125,0.02263021469116211,-0.04347038269042969,-0.04712486267089844
556,265000000,imu2_frame,0.19476880915031913,0.02145076995813518,-0.8840980684210547,0.42423528950869926,0.015625,-0.05078125,0.3203125,0.11803555488586426,-0.09600317478179932,0.037616729736328125
556,291000000,imu2_frame,0.19219247167853717,0.019892603630546478,-0.8832925954907763,0.42715398734187215,0.08984375,-0.0703125,0.267578125,0.058699846267700195,-0.11284470558166504,0.016870498657226562
556,316000000,imu2_frame,0.19019053010873777,0.01886288733502452,-0.8826062366203906,0.4295090043493089,0.12890625,-0.078125,0.251953125,0.013849496841430664,-0.12291514873504639,0.0011262893676757812
556,341000000,imu2_frame,0.18880684290564506,0.0143971938780398,-0.8815504498364486,0.4324505766831586,0.12890625,-0.078125,0.251953125,0.027539491653442383,-0.04715168476104736,-0.07843494415283203
556,365000000,imu2_frame,0.18710328807391138,0.010433550406330937,-0.8805976855448435,0.43523696629642394,0.12890625,-0.078125,0.251953125,0.03988814353942871,-0.03331255912780762,-0.022563934326171875
556,391000000,imu2_frame,0.18449838557232875,0.010058417769537016,-0.8799016805096931,0.4377581599346791,0.029296875,-0.044921875,0.22265625,-0.010152101516723633,-0.026839256286621094,-0.041634559631347656
556,416000000,imu2_frame,0.18521760870872028,0.011042686646549928,-0.8787737577143062,0.43969214144504276,0.044921875,-0.044921875,0.2265625,0.0069522857666015625,-0.023300647735595703,-0.036034584045410156
556,441000000,imu2_frame,0.18725064604373956,0.010339642319946734,-0.8772859251989056,0.4418140930309921,0.044921875,-0.044921875,0.2265625,-0.08638191223144531,-0.021851301193237305,-0.1348104476928711
556,466000000,imu2_frame,0.1887761613281656,0.0106529053399977,-0.8757632661616026,0.4441720141611598,-0.00390625,-0.048828125,0.24609375,-0.06264352798461914,-0.03867208957672119,-0.12346935272216797
556,491000000,imu2_frame,0.1901185600508867,0.01128987740602942,-0.8743757727097612,0.4463120879950956,0.001953125,-0.048828125,0.232421875,-0.03881549835205078,-0.047683000564575195,-0.11325359344482422
556,516000000,imu2_frame,0.1913892851889053,0.011760240108438503,-0.8731273372756556,0.44819693346719297,0.046875,-0.052734375,0.22265625,-0.01722860336303711,-0.05806899070739746,-0.10356426239013672
556,541000000,imu2_frame,0.189527322287618,0.008654690886839424,-0.8721470746369011,0.4509589456197031,0.046875,-0.052734375,0.22265625,0.07298898696899414,-0.030949711799621582,-0.11866283416748047
556,565000000,imu2_frame,0.187181572774878,0.006775682387704201,-0.8714093118896569,0.4533905161047139,0.07421875,-0.056640625,0.2265625,0.014061927795410156,-0.05130195617675781,-0.13650226593017578
556,591000000,imu2_frame,0.18891872259958395,0.0035145258912061663,-0.8697523040028833,0.45588188606346014,0.07421875,-0.056640625,0.2265625,-0.02638387680053711,0.0598599910736084,-0.15954875946044922
556,616000000,imu2_frame,0.19085156530097444,0.0013490734775395976,-0.8679667242410259,0.45848405166725603,0.044921875,-0.046875,0.25390625,-0.019414424896240234,-0.0039327144622802734,-0.14540672302246094
556,641000000,imu2_frame,0.19294775062476924,0.0003702820759664496,-0.8662457678824336,0.46085713409450335,0.05078125,-0.04296875,0.255859375,0.0009038448333740234,-0.04828751087188721,-0.1297140121459961
556,666000000,imu2_frame,0.19052339650789404,-0.001511644709247521,-0.8652144827777193,0.4637913853286332,0.05078125,-0.04296875,0.255859375,0.09134697914123535,-0.06922769546508789,-0.030651092529296875
556,690000000,imu2_frame,0.18834466890432006,-0.0026687383026605086,-0.864246238769525,0.4664735815712644,0.072265625,-0.0390625,0.26171875,0.04030418395996094,-0.07886922359466553,-0.046690940856933594
556,715000000,imu2_frame,0.18667345730380272,-0.0026997706102231157,-0.8631730233183893,0.46912478445749245,0.076171875,-0.0390625,0.2734375,0.007729291915893555,-0.07377076148986816,-0.05893898010253906
556,741000000,imu2_frame,0.18722488014484495,-0.0069459889810074005,-0.8612628487089945,0.472360987937712,0.076171875,-0.0390625,0.2734375,0.04486870765686035,0.0684213638305664,-0.09317493438720703
556,765000000,imu2_frame,0.1879631131978029,-0.010792293490235406,-0.859444999410645,0.4752974726066265,0.076171875,-0.0390625,0.2734375,0.014482975006103516,0.06457197666168213,-0.051270484924316406
556,791000000,imu2_frame,0.1890896014935926,-0.014654230660104227,-0.8570105088868686,0.4791277113549427,0.056640625,-0.03515625,0.3359375,-0.012571334838867188,-0.0242307186126709,-0.04104900360107422
556,815000000,imu2_frame,0.19019480159604413,-0.014260927533254046,-0.8550941596591016,0.4821167301687709,0.064453125,-0.033203125,0.349609375,0.0016722679138183594,-0.0385737419128418,-0.03307533264160156
556,840000000,imu2_frame,0.19158580783675963,-0.017895971880912312,-0.8526042486052302,0.4858401050616186,0.064453125,-0.033203125,0.349609375,-0.019967317581176758,0.02683401107788086,-0.05556774139404297
556,865000000,imu2_frame,0.1934087834707291,-0.020506179553909053,-0.8497730074463801,0.48995752355894084,0.0546875,-0.05859375,0.4140625,-0.026732683181762695,-0.048407793045043945,-0.03989124298095703
556,890000000,imu2_frame,0.1934764886651508,-0.01969713124173611,-0.847580863593008,0.4937464440637323,0.021484375,-0.056640625,0.40625,-0.02759552001953125,-0.049112558364868164,-0.04001140594482422
556,915000000,imu2_frame,0.1936246943281424,-0.01891384857031449,-0.8453963483576163,0.4974502570732078,0.02734375,-0.052734375,0.400390625,-0.027217626571655273,-0.050776004791259766,-0.039481163024902344
556,940000000,imu2_frame,0.19084579014124137,-0.02051626881667869,-0.8433773628336396,0.5018681011570495,0.02734375,-0.052734375,0.400390625,0.2105851173400879,-0.18310546875,-0.06303215026855469
556,966000000,imu2_frame,0.1882179248841754,-0.022256267959691163,-0.8415646594097471,0.5058137951078022,0.080078125,-0.064453125,0.361328125,0.14180850982666016,-0.19973969459533691,-0.08104896545410156
556,990000000,imu2_frame,0.18633654540283154,-0.025894908959048533,-0.8395344196952983,0.5096960895320073,0.080078125,-0.064453125,0.361328125,-0.012607097625732422,-0.05879092216491699,-0.067962646484375
557,15000000,imu2_frame,0.18641604873154805,-0.025447873742000346,-0.8375564389480308,0.5129334012072349,0.07421875,-0.056640625,0.365234375,-0.015674591064453125,-0.06305289268493652,-0.06783485412597656
557,41000000,imu2_frame,0.18652319858554994,-0.024750980674088173,-0.8353813054447448,0.5164635126110273,0.05859375,-0.04296875,0.376953125,-0.0165712833404541,-0.06453609466552734,-0.06773757934570312
557,65000000,imu2_frame,0.18610261531754643,-0.02879296747770833,-0.8328584353495,0.5204648002151344,0.05859375,-0.04296875,0.376953125,0.041512489318847656,-0.06130337715148926,-0.17985153198242188
557,91000000,imu2_frame,0.18624739799122597,-0.02850180567122772,-0.8306646103890124,0.5239235238679855,0.083984375,-0.060546875,0.37890625,0.03691911697387695,-0.06940722465515137,-0.1791229248046875
557,116000000,imu2_frame,0.18618094411203817,-0.02800558758829251,-0.8285591281005882,0.5272969887592548,0.068359375,-0.0546875,0.37890625,0.03141307830810547,-0.07179427146911621,-0.18015575408935547
557,141000000,imu2_frame,0.18438980473587577,-0.03181148741562899,-0.8261359121825859,0.5314958925336277,0.068359375,-0.0546875,0.37890625,0.10417962074279785,-0.054386138916015625,-0.15352153778076172
557,166000000,imu2_frame,0.18247685894345697,-0.035505900135754054,-0.8237050807098427,0.5356785108798662,0.068359375,-0.0546875,0.37890625,0.023332834243774414,-0.06834173202514648,-0.12331581115722656
557,190000000,imu2_frame,0.18183904209126864,-0.035573868995662214,-0.8217153026086864,0.5389369388664357,0.109375,-0.064453125,0.380859375,0.0030121803283691406,-0.07295489311218262,-0.1277637481689453
557,215000000,imu2_frame,0.18203607579585623,-0.03536446047236766,-0.8193582310447862,0.5424613454095162,0.091796875,-0.0546875,0.40234375,-0.002444744110107422,-0.08257412910461426,-0.12665462493896484
557,241000000,imu2_frame,0.18264832267281222,-0.04008974644152433,-0.8161702980827913,0.5467160570008075,0.091796875,-0.0546875,0.40234375,0.05581355094909668,0.05303788185119629,-0.19344711303710938
557,265000000,imu2_frame,0.18362998323225718,-0.04423687027618957,-0.8131753269618976,0.5505170444107059,0.091796875,-0.05859375,0.40234375,0.013116836547851562,-0.03466677665710449,-0.17958354949951172
557,290000000,imu2_frame,0.18591336127646466,-0.04648924774504242,-0.8102202064623449,0.5539117158745624,0.12109375,-0.0625,0.40234375,0.011346578598022461,-0.10468769073486328,-0.15909576416015625
557,316000000,imu2_frame,0.18584397057819552,-0.04676948409999598,-0.8076781217727234,0.5576115902368213,0.1328125,-0.056640625,0.4140625,-0.0053882598876953125,-0.11950922012329102,-0.15908527374267578
557,341000000,imu2_frame,0.18719453505907127,-0.05148351362761146,-0.8043710491877355,0.5615112368396517,0.1328125,-0.056640625,0.4140625,-0.012423515319824219,0.049952030181884766,-0.09721851348876953
557,366000000,imu2_frame,0.18883695173790518,-0.05474642670381418,-0.8008478728801303,0.5656731555632374,0.06640625,-0.05078125,0.44921875,-0.03987455368041992,-0.030966997146606445,-0.07837104797363281
557,390000000,imu2_frame,0.18944079154922713,-0.058836618570239044,-0.7974074458740612,0.5699050833928653,0.06640625,-0.05078125,0.44921875,-0.015126228332519531,-0.07823538780212402,-0.10779285430908203
557,416000000,imu2_frame,0.18928619486996762,-0.05790982954733668,-0.7943447162384843,0.5743114658941166,0.015625,-0.03515625,0.46875,-0.023521900177001953,-0.07491660118103027,-0.11104965209960938
557,440000000,imu2_frame,0.18657022584550306,-0.058954156393668196,-0.791494543724942,0.5790097974348228,0.015625,-0.03515625,0.46875,0.137251615524292,-0.22684812545776367,-0.0856466293334961
557,466000000,imu2_frame,0.18361238063004917,-0.06012336722841972,-0.7883588377795062,0.5840907611728067,0.015625,-0.03515625,0.46875,0.021968603134155273,-0.1088247299194336,-0.10823345184326172
557,491000000,imu2_frame,0.1823260007011176,-0.060850775493959224,-0.7857005131649182,0.5879873435734004,0.126953125,-0.06640625,0.43359375,-0.02027153968811035,-0.11606860160827637,-0.11571598052978516
557,516000000,imu2_frame,0.18164958907318624,-0.060633314551755614,-0.7829902881543194,0.5918219636107014,0.0703125,-0.0703125,0.4375,-0.04233241081237793,-0.11535263061523438,-0.12104606628417969
557,541000000,imu2_frame,0.18000744946062258,-0.06500218798880186,-0.7796155878535205,0.5962982214221001,0.0703125,-0.0703125,0.4375,0.05583465099334717,-0.06139969825744629,-0.16098976135253906
557,565000000,imu2_frame,0.17758682113958474,-0.06836070522009727,-0.7765598161559168,0.6006201685518368,0.0703125,-0.0703125,0.4375,0.002483844757080078,-0.09529352188110352,-0.16915225982666016
557,590000000,imu2_frame,0.17748287949069183,-0.06761754136033202,-0.773766405074726,0.6043287565272821,0.05078125,-0.033203125,0.42578125,-0.00496518611907959,-0.09196114540100098,-0.17185020446777344
557,615000000,imu2_frame,0.17764202069121507,-0.06647125242981168,-0.770981300046333,0.6079578275374209,0.017578125,-0.01953125,0.416015625,-0.0034046173095703125,-0.08548402786254883,-0.1737508773803711
557,641000000,imu2_frame,0.17836533438101929,-0.06994114739994016,-0.7672339720345648,0.612083389374023,0.017578125,-0.01953125,0.416015625,0.021763920783996582,0.035788536071777344,-0.1985311508178711
557,666000000,imu2_frame,0.17952958607121008,-0.07272874242176934,-0.763856692471734,0.6156318795489645,0.01171875,-0.029296875,0.390625,-0.011025071144104004,-0.027595996856689453,-0.18261241912841797
557,691000000,imu2_frame,0.17689519515770677,-0.07509992268256784,-0.7608897152823022,0.6197700643955033,0.01171875,-0.029296875,0.390625,0.021973729133605957,-0.08034133911132812,-0.1511402130126953
557,715000000,imu2_frame,0.17624565227054623,-0.07511499427061233,-0.7585908409252635,0.6227641156615857,0.1171875,-0.03515625,0.36328125,-0.00018548965454101562,-0.07963705062866211,-0.1555795669555664
557,740000000,imu2_frame,0.17623526117972577,-0.07972906835305835,-0.7553157973653588,0.6261648781485587,0.1171875,-0.03515625,0.36328125,0.04018259048461914,-0.0021796226501464844,-0.06747055053710938
557,766000000,imu2_frame,0.17840496317572727,-0.08340064553264004,-0.7518887606702858,0.6291893935983888,0.1171875,-0.03515625,0.36328125,-0.02867269515991211,-0.04882931709289551,-0.1149435043334961
557,791000000,imu2_frame,0.18066848385150883,-0.0866036970110388,-0.7486177752402846,0.6320048458683717,0.1171875,-0.03515625,0.36328125,-0.05111658573150635,-0.010961532592773438,-0.12747478485107422
557,815000000,imu2_frame,0.18248998530441232,-0.08697955005963134,-0.7456016330348866,0.634988321113648,0.009765625,-0.00390625,0.38671875,-0.044934630393981934,-0.04448437690734863,-0.11326789855957031
557,841000000,imu2_frame,0.17973240774268984,-0.08862571379611825,-0.7424763254764285,0.6391953148828333,0.009765625,-0.00390625,0.38671875,0.03243708610534668,-0.08270525932312012,-0.09197998046875
557,865000000,imu2_frame,0.1771417239930039,-0.08960898313899511,-0.7396656453111468,0.6430285941604983,0.009765625,-0.00390625,0.38671875,0.0012619495391845703,-0.07295775413513184,-0.10662555694580078
557,891000000,imu2_frame,0.1762360596830841,-0.0882801393698687,-0.7369963712988299,0.6465166795625414,0.015625,-0.0078125,0.376953125,-0.010345220565795898,-0.04976916313171387,-0.11750316619873047
557,916000000,imu2_frame,0.17765891714341847,-0.08756850605096428,-0.734090711620856,0.6495228194755097,0.037109375,0.0,0.3828125,0.0039031505584716797,-0.06294751167297363,-0.11010932922363281
557,941000000,imu2_frame,0.17694472680019457,-0.09113056042345138,-0.7305296619171799,0.6532321162295094,0.037109375,0.0,0.3828125,0.046692728996276855,-0.07241582870483398,-0.21199321746826172
557,966000000,imu2_frame,0.17449133890022608,-0.09237768711268952,-0.7275040043459325,0.657082231713162,0.037109375,0.0,0.3828125,0.09175121784210205,-0.18377375602722168,-0.18530654907226562
557,990000000,imu2_frame,0.17233699665941588,-0.0931445475979139,-0.7251119308178912,0.6601793245935096,0.0625,-0.01953125,0.33203125,0.03756844997406006,-0.17308735847473145,-0.19713115692138672
558,16000000,imu2_frame,0.17056425580325973,-0.09280409941706055,-0.7225689190326565,0.6634677015662832,0.05078125,-0.00390625,0.337890625,0.0023916959762573242,-0.15173721313476562,-0.2102499008178711
558,41000000,imu2_frame,0.17190274638724556,-0.09590468904074896,-0.71926694960471,0.6662633050160085,0.05078125,-0.00390625,0.337890625,0.0038001537322998047,0.053473472595214844,-0.15861034393310547
558,65000000,imu2_frame,0.1732346870436135,-0.09801730336197233,-0.7161628199718761,0.668949300572531,0.001953125,0.001953125,0.33984375,-0.020644783973693848,0.003277301788330078,-0.1416168212890625
558,91000000,imu2_frame,0.17444394404072816,-0.09680683926435989,-0.7134795535738404,0.6716730401700169,0.001953125,0.001953125,0.33984375,-0.0021872520446777344,-0.07793998718261719,-0.16925525665283203
558,115000000,imu2_frame,0.17514698435105155,-0.09556571195358171,-0.7111571451421792,0.6741262815561806,0.017578125,-0.005859375,0.330078125,0.011380791664123535,-0.07392764091491699,-0.16911602020263672
558,141000000,imu2_frame,0.1760699072106799,-0.09860611003633889,-0.7077679170951111,0.6770087136582306,0.017578125,-0.005859375,0.330078125,0.005982041358947754,0.024529457092285156,-0.1512451171875
558,166000000,imu2_frame,0.17347786603928178,-0.09924271833443503,-0.7051501467312999,0.6803084472626186,0.017578125,-0.005859375,0.330078125,0.09877324104309082,-0.22565340995788574,-0.16648578643798828
558,191000000,imu2_frame,0.17109351314784757,-0.09919807447172346,-0.7026308416464989,0.6835178506425138,0.017578125,-0.005859375,0.330078125,0.09091579914093018,-0.35152482986450195,-0.15146923065185547
558,216000000,imu2_frame,0.16924872045376618,-0.09943694612575156,-0.7007916187253292,0.6858267066061805,0.076171875,-0.02734375,0.25,0.051814138889312744,-0.33422064781188965,-0.16281414031982422
558,241000000,imu2_frame,0.16839028598053754,-0.10311917326147164,-0.6982176431255611,0.6881157391903269,0.076171875,-0.02734375,0.25,0.05572432279586792,-0.07079172134399414,-0.18124866485595703
558,266000000,imu2_frame,0.1685647171159892,-0.10694454833466024,-0.695545221962065,0.6901924687584209,0.076171875,-0.02734375,0.25,-0.0064980387687683105,-0.08753156661987305,-0.16829967498779297
558,290000000,imu2_frame,0.16891208172758587,-0.10575777268849695,-0.6938864825403926,0.6919577671434456,0.056640625,-0.015625,0.248046875,0.005114376544952393,-0.07850217819213867,-0.17093849182128906
558,316000000,imu2_frame,0.16842451722692356,-0.10382277801164522,-0.692237620716941,0.6940180755765453,-0.03515625,-0.033203125,0.248046875,0.015064537525177002,-0.049100399017333984,-0.18208026885986328
558,340000000,imu2_frame,0.16979280275132014,-0.10424935999406391,-0.6901884058918552,0.6956597152682763,-0.03515625,-0.033203125,0.248046875,-0.021422982215881348,-0.03561973571777344,-0.10099220275878906
558,366000000,imu2_frame,0.17123063917740422,-0.1051041268847802,-0.6878888140441801,0.6974540631694512,-0.03515625,-0.033203125,0.248046875,-0.025032401084899902,-0.02891826629638672,-0.08400344848632812
558,391000000,imu2_frame,0.17275835153522162,-0.10488296401878218,-0.6859962580838826,0.6989729964228794,0.03515625,-0.046875,0.24609375,-0.010977327823638916,-0.0480349063873291,-0.07463645935058594
558,415000000,imu2_frame,0.17273295883529743,-0.10393853680075982,-0.6845536594404718,0.7005329348762832,0.05859375,-0.046875,0.228515625,-0.006450295448303223,-0.03737640380859375,-0.0786600112915039
558,440000000,imu2_frame,0.17170045975088583,-0.10763509153676948,-0.6821504327527799,0.7025698728855377,0.05859375,-0.046875,0.228515625,0.18238532543182373,-0.039311885833740234,-0.2578268051147461
558,466000000,imu2_frame,0.17070962185535296,-0.11100663000108696,-0.6797754706359025,0.7045857383055246,0.04296875,-0.017578125,0.208984375,0.1105719804763794,-0.07223391532897949,-0.2500486373901367
558,491000000,imu2_frame,0.17043485043207762,-0.11437152579213948,-0.6774249392825065,0.7063756560671283,0.04296875,-0.017578125,0.208984375,0.0878068208694458,-0.035738229751586914,-0.2370586395263672
558,516000000,imu2_frame,0.17025467919816226,-0.11717684800357549,-0.6750899180520149,0.7081924406879825,0.01171875,0.013671875,0.203125,0.03475356101989746,-0.07109355926513672,-0.22556114196777344
558,541000000,imu2_frame,0.17120524878116503,-0.11538398185831163,-0.6736673206414899,0.7096109079065909,0.01171875,0.013671875,0.203125,0.025096893310546875,-0.06215071678161621,-0.15314483642578125
558,566000000,imu2_frame,0.17047798315995533,-0.11356731215868783,-0.6723015325292307,0.7113721756054369,0.01171875,0.013671875,0.203125,-0.002896904945373535,-0.03098773956298828,-0.08800506591796875
558,591000000,imu2_frame,0.17274823175727388,-0.11339423389536821,-0.6705997740324273,0.7124575350234392,0.009765625,0.013671875,0.189453125,0.021187424659729004,-0.06014704704284668,-0.07354736328125
558,616000000,imu2_frame,0.1706243618059355,-0.11357845158472986,-0.6691056639952183,0.7143422659366101,0.037109375,0.001953125,0.181640625,-0.01838064193725586,-0.03598356246948242,-0.08697891235351562
558,640000000,imu2_frame,0.17150157316596037,-0.11632183120304385,-0.6670311151631705,0.7156297460218856,0.037109375,0.001953125,0.181640625,0.01911640167236328,0.02960491180419922,-0.06488609313964844
558,665000000,imu2_frame,0.1730495968961434,-0.11875416688231404,-0.6649304325679056,0.71681155452966,0.037109375,0.001953125,0.181640625,-0.004573941230773926,0.01618218421936035,-0.08625221252441406
558,691000000,imu2_frame,0.1739451585793325,-0.12003984709054828,-0.6623773128962089,0.7187418258858229,-0.0703125,-0.0078125,0.251953125,-0.024158775806427002,-0.013646841049194336,-0.07417774200439453
558,716000000,imu2_frame,0.17428051329360963,-0.11864478125875905,-0.6600289674645909,0.7210488753710134,-0.16796875,0.0,0.296875,-0.013566255569458008,-0.0027184486389160156,-0.07840156555175781
558,741000000,imu2_frame,0.17411888986652108,-0.119316052528974,-0.6572433955472314,0.7235173880495885,-0.16796875,0.0,0.296875,-0.040351808071136475,0.10618925094604492,0.15408706665039062
558,766000000,imu2_frame,0.16986073119143147,-0.11909568393407832,-0.6547527829418214,0.726816581605928,-0.16796875,0.0,0.296875,0.04445788264274597,0.04686284065246582,0.1595935821533203
558,791000000,imu2_frame,0.166233705739946,-0.12055261448357357,-0.6514065750880018,0.7304128258384156,-0.078125,-0.02734375,0.3671875,-0.04201000928878784,0.07594895362854004,0.14258861541748047
558,815000000,imu2_frame,0.16729567072299822,-0.1204023257907963,-0.6486745133301192,0.7326232416852758,-0.013671875,-0.044921875,0.345703125,-0.040480464696884155,0.06192159652709961,0.14880084991455078
558,840000000,imu2_frame,0.16404640171622262,-0.12092182020238998,-0.6457637666913749,0.7358368359299963,-0.013671875,-0.044921875,0.345703125,0.05020269751548767,-0.20627284049987793,-0.06510066986083984
558,865000000,imu2_frame,0.1607095999040669,-0.12143764874873755,-0.6430551368435918,0.7388541215585946,-0.00390625,-0.08984375,0.33984375,-0.015008032321929932,-0.16783905029296875,-0.08383941650390625
558,891000000,imu2_frame,0.1572324519218017,-0.12430016801910873,-0.6397292218152855,0.7420067028327231,-0.00390625,-0.08984375,0.33984375,0.034403473138809204,-0.08098006248474121,-0.11904525756835938
558,915000000,imu2_frame,0.1539449676471563,-0.12596318867535602,-0.6367605807856458,0.7449632103616792,0.00390625,-0.07421875,0.341796875,-0.04703942686319351,-0.05568718910217285,-0.1309051513671875
558,941000000,imu2_frame,0.15525843269572445,-0.12725827032510756,-0.6336063205328702,0.7471567320793723,0.00390625,-0.07421875,0.341796875,-0.06457976251840591,-0.050650835037231445,-0.1556253433227539
558,965000000,imu2_frame,0.15232600785914308,-0.12746400487006893,-0.6309010311029605,0.7500090691087679,0.00390625,-0.07421875,0.341796875,-0.040939655154943466,-0.12543988227844238,-0.2151927947998047
558,991000000,imu2_frame,0.15198918219138563,-0.12685529615106317,-0.6281769585788071,0.7524631094252393,0.068359375,-0.06640625,0.33203125,-0.05034797315602191,-0.1135263442993164,-0.22022342681884766
559,16000000,imu2_frame,0.15237387699625055,-0.1262601173278331,-0.6254483343123945,0.7547549042486204,0.064453125,-0.05859375,0.33984375,-0.05065338582789991,-0.11196351051330566,-0.22088146209716797
559,40000000,imu2_frame,0.15290006413393867,-0.12992556425549046,-0.621962344239327,0.7569040629360175,0.064453125,-0.05859375,0.33984375,0.03816934674978256,0.029323577880859375,-0.3165779113769531
559,65000000,imu2_frame,0.15291467355176788,-0.13393538353638215,-0.6182744352436108,0.759220085596866,0.064453125,-0.05859375,0.33984375,0.03615270555019379,-0.01691126823425293,-0.2528400421142578
559,91000000,imu2_frame,0.15347803336739735,-0.13673329286877103,-0.6141660915618904,0.7619373411708671,0.005859375,0.013671875,0.3671875,-0.01814909279346466,-0.05625271797180176,-0.2346639633178711
559,115000000,imu2_frame,0.15538799016771937,-0.1383017171528404,-0.6105439941991957,0.7641748744178293,0.03515625,0.01953125,0.369140625,-0.03562994301319122,-0.10053420066833496,-0.21470069885253906
559,141000000,imu2_frame,0.1533068571022977,-0.13776537579947343,-0.6070303807230849,0.7674840882229625,0.03515625,0.01953125,0.369140625,-0.028929606080055237,-0.18072915077209473,-0.07780075073242188
559,166000000,imu2_frame,0.1515361513533736,-0.13681715064527417,-0.603829355858937,0.7705244779533593,0.025390625,0.01171875,0.361328125,-0.053327858448028564,-0.1433572769165039,-0.09344100952148438
559,191000000,imu2_frame,0.1502410715820969,-0.13557975400299313,-0.6007947975244687,0.7733636673531308,0.025390625,0.0,0.353515625,-0.06641325354576111,-0.10954093933105469,-0.10766983032226562
559,215000000,imu2_frame,0.14972678322567648,-0.13413138638941052,-0.5980346144507285,0.775851314034406,0.025390625,0.0,0.341796875,-0.06515797972679138,-0.08479642868041992,-0.11832237243652344
559,241000000,imu2_frame,0.1470552625285565,-0.13592335960580695,-0.5943055533271923,0.7789098146515987,0.025390625,0.0,0.341796875,0.1232154369354248,-0.17739009857177734,-0.16342449188232422
559,266000000,imu2_frame,0.1446440417479607,-0.13752599412556568,-0.5909684401302226,0.7816143581694496,0.048828125,-0.00390625,0.31640625,0.05409732460975647,-0.157973051071167,-0.16860580444335938
559,291000000,imu2_frame,0.14533763608144024,-0.14067010114788983,-0.5873725057613212,0.7836341197631508,0.048828125,-0.00390625,0.31640625,-0.0016933977603912354,-0.009304285049438477,-0.1436767578125
559,315000000,imu2_frame,0.1463677982132965,-0.14273686673692837,-0.584227943603312,0.7854173186487302,-0.001953125,-0.00390625,0.306640625,-0.03549540042877197,-0.04514050483703613,-0.12635326385498047
559,341000000,imu2_frame,0.14428908630399753,-0.14148356588513752,-0.5814437322529905,0.7880902526879114,-0.001953125,-0.00390625,0.306640625,-0.05524331331253052,-0.11598062515258789,-0.14511871337890625
559,366000000,imu2_frame,0.14594706009805436,-0.14109298935302758,-0.5786920409874972,0.7898783106921509,-0.001953125,-0.00390625,0.306640625,-0.004098773002624512,-0.09551024436950684,-0.18084335327148438
559,391000000,imu2_frame,0.14340161012154512,-0.14170147054082188,-0.5761123395433938,0.7921182005780162,0.04296875,-0.0390625,0.265625,-0.05572563409805298,-0.06224489212036133,-0.19187259674072266
559,415000000,imu2_frame,0.14523955134379973,-0.14197557311059616,-0.573851728049189,0.7933741888795783,0.072265625,-0.056640625,0.267578125,-0.04917186498641968,-0.09105873107910156,-0.17998695373535156
559,441000000,imu2_frame,0.1465854587519166,-0.14542284727167218,-0.5707334910873794,0.7947503890688588,0.072265625,-0.056640625,0.267578125,-0.022254884243011475,0.0457453727722168,-0.07482337951660156
559,466000000,imu2_frame,0.14755677355086128,-0.14896186452508872,-0.5676699937043799,0.796108120636976,0.072265625,-0.056640625,0.267578125,0.03409433364868164,0.11336374282836914,-0.1660604476928711
559,490000000,imu2_frame,0.14841791289995188,-0.1519449767700678,-0.5645190874043631,0.7976233742317931,0.0390625,-0.0546875,0.30078125,-0.016413867473602295,0.0718240737915039,-0.14353179931640625
559,515000000,imu2_frame,0.1499165450350321,-0.15440058958580963,-0.5612237150507101,0.7991954886790796,0.04296875,-0.037109375,0.310546875,-0.052564263343811035,0.026700496673583984,-0.1200876235961914
559,540000000,imu2_frame,0.14721496620997823,-0.1564427862409472,-0.5578340508323654,0.801669869764929,0.04296875,-0.037109375,0.310546875,-0.014244377613067627,-0.06747293472290039,-0.08039474487304688
559,566000000,imu2_frame,0.14511902913841612,-0.15541124503925896,-0.5542330054728422,0.8047444239892635,0.013671875,0.013671875,0.3671875,-0.04049175977706909,-0.02117466926574707,-0.09865665435791016
559,591000000,imu2_frame,0.14678410217474763,-0.1551726923232069,-0.5505098962555487,0.8070407158443903,0.0078125,0.013671875,0.39453125,-0.036341071128845215,-0.04004812240600586,-0.09061145782470703
559,616000000,imu2_frame,0.14740625066823512,-0.15384716162055528,-0.5470995694225361,0.8094964541385639,-0.0078125,0.001953125,0.38671875,-0.02595001459121704,-0.032433271408081055,-0.09503746032714844
559,640000000,imu2_frame,0.14441672855996443,-0.1541654607214658,-0.5433032480895736,0.8125259379539184,-0.0078125,0.001953125,0.38671875,0.14375633001327515,-0.3684682846069336,0.04217243194580078
559,665000000,imu2_frame,0.14116321191339706,-0.1548449290438069,-0.5403107447910385,0.8149603024780195,0.0,-0.05859375,0.302734375,0.08278614282608032,-0.3216700553894043,0.02811431884765625
559,691000000,imu2_frame,0.13775109964444665,-0.15562507404718431,-0.5371581684340551,0.8174757323365175,0.0,-0.05859375,0.302734375,0.09630513191223145,-0.3117988109588623,0.04940223693847656
559,716000000,imu2_frame,0.13437944644637614,-0.15573317866378625,-0.5344551749548514,0.8197847323535722,-0.029296875,-0.044921875,0.27734375,0.045046448707580566,-0.2568941116333008,0.03212547302246094
559,740000000,imu2_frame,0.13104184259650703,-0.15699722094419166,-0.5316013848207295,0.8219366616482048,-0.029296875,-0.044921875,0.27734375,-0.023989319801330566,-0.0219571590423584,-0.04777812957763672
559,766000000,imu2_frame,0.1311672356654806,-0.15971684060526697,-0.5284598403548298,0.8234171993874648,-0.029296875,-0.044921875,0.27734375,-0.0399855375289917,-0.007126808166503906,-0.1513986587524414
559,790000000,imu2_frame,0.13280900551380054,-0.1597658492664772,-0.526204452491109,0.8245880884666774,-0.04296875,0.048828125,0.234375,-0.033329129219055176,-0.030060529708862305,-0.14262104034423828
559,815000000,imu2_frame,0.13440348861167634,-0.1594514811900766,-0.5236630929877719,0.8260071987808469,-0.05859375,0.0546875,0.259765625,-0.022961854934692383,-0.04833626747131348,-0.13625240325927734
559,840000000,imu2_frame,0.131318271966296,-0.159591022537744,-0.5207170493713117,0.8283356635248648,-0.05859375,0.0546875,0.259765625,0.0025898218154907227,-0.07097911834716797,-0.14749622344970703
559,865000000,imu2_frame,0.12819911706996207,-0.1588689762807288,-0.5179298069043544,0.8307071384537476,-0.05859375,0.0546875,0.259765625,0.0072438716888427734,-0.16666793823242188,-0.21078205108642578
559,890000000,imu2_frame,0.12494253752151942,-0.15887943829893064,-0.515302395713798,0.8328325926469978,-0.037109375,-0.00390625,0.248046875,-0.038913726806640625,-0.11092448234558105,-0.22683048248291016
559,915000000,imu2_frame,0.121668443075387,-0.1589624780045049,-0.5126451201629796,0.834938741057907,-0.037109375,-0.00390625,0.248046875,-0.04704582691192627,-0.12942957878112793,-0.2811603546142578
559,940000000,imu2_frame,0.12275056928718654,-0.16030694335076512,-0.5100586995745875,0.8361065151291952,-0.037109375,-0.00390625,0.248046875,-0.06799829006195068,-0.002886056900024414,-0.3027629852294922
559,966000000,imu2_frame,0.123928649922909,-0.16205010653670893,-0.5079119171519296,0.8369031826410853,-0.01953125,-0.068359375,0.212890625,-0.09246575832366943,-0.03465008735656738,-0.2860984802246094
559,991000000,imu2_frame,0.1205083874892746,-0.16353040919495096,-0.5055367999012979,0.8385511777815483,-0.01953125,-0.068359375,0.212890625,-0.04823112487792969,-0.14205336570739746,-0.2930145263671875
560,15000000,imu2_frame,0.1179219395228574,-0.16369851538941504,-0.5036692462921616,0.8400086324425211,0.021484375,-0.080078125,0.197265625,-0.0855175256729126,-0.09871172904968262,-0.30399131774902344
560,40000000,imu2_frame,0.11933245260324656,-0.16595646359263685,-0.5016532742332919,0.8405725491583323,0.021484375,-0.080078125,0.197265625,-0.08006668090820312,0.05256175994873047,-0.20868968963623047
560,65000000,imu2_frame,0.12082433045327873,-0.16805240523121484,-0.49967675536109,0.8411200927443915,0.021484375,-0.080078125,0.197265625,-0.06727993488311768,-0.022460222244262695,-0.1489391326904297
560,91000000,imu2_frame,0.12138234377543575,-0.17136463075313754,-0.49731825051009837,0.8417689989872505,0.021484375,-0.080078125,0.197265625,-0.04593002796173096,-0.022464513778686523,-0.16338539123535156
560,116000000,imu2_frame,0.12288595489061292,-0.17201504853594732,-0.4951040026762639,0.8427229032735137,-0.025390625,-0.01171875,0.23046875,-0.0505448579788208,-0.04838204383850098,-0.1518383026123047
560,141000000,imu2_frame,0.11998042863540385,-0.1713374588503208,-0.492757107204506,0.8446529495826238,-0.025390625,-0.01171875,0.23046875,-0.04042172431945801,-0.18206477165222168,-0.12720298767089844
560,165000000,imu2_frame,0.11748325966800496,-0.17026553455950963,-0.4905990650004754,0.8464749782832355,-0.025390625,-0.01171875,0.23046875,-0.05779671669006348,-0.08845043182373047,-0.1498584747314453
560,190000000,imu2_frame,0.11662207613508577,-0.1684620678256335,-0.48877399015223844,0.8480093216542574,0.009765625,-0.005859375,0.20703125,-0.04542839527130127,-0.05439496040344238,-0.165740966796875
560,215000000,imu2_frame,0.11842588368467634,-0.1677202988210403,-0.4869637876535779,0.8489472780750082,-0.001953125,0.00390625,0.20703125,-0.0231553316116333,-0.07342529296875,-0.16233158111572266
560,241000000,imu2_frame,0.12021986773486447,-0.16888646289832973,-0.4847028720209022,0.8497574194475689,-0.001953125,0.00390625,0.20703125,-0.03341054916381836,0.008467674255371094,-0.06816864013671875
560,266000000,imu2_frame,0.12071923884620438,-0.16695886255836728,-0.4830019618468589,0.8510350806151852,-0.001953125,0.00390625,0.20703125,-0.004858255386352539,-0.018120288848876953,-0.07846450805664062
560,291000000,imu2_frame,0.12130566474725409,-0.1699235282577433,-0.4804905350147957,0.8517862267058925,0.02734375,-0.03515625,0.205078125,-0.0570758581161499,-0.04927563667297363,-0.056174278259277344
560,315000000,imu2_frame,0.12323719282525403,-0.17090313965338527,-0.4785624012942367,0.8523982280769129,0.02734375,-0.03515625,0.205078125,-0.06193745136260986,-0.01145625114440918,-0.11463165283203125
560,341000000,imu2_frame,0.12092538624208382,-0.17343665217945123,-0.47578254848997314,0.8537726542794476,0.02734375,-0.03515625,0.205078125,0.01533210277557373,-0.10375308990478516,-0.1867361068725586
560,366000000,imu2_frame,0.11831385310042697,-0.17585552480661173,-0.4728500769583512,0.8552715775003886,0.025390625,-0.0546875,0.234375,-0.06125926971435547,-0.07605361938476562,-0.1824331283569336
560,390000000,imu2_frame,0.11647048943579803,-0.17882890234821905,-0.46996179481582745,0.8564991302908619,0.025390625,-0.0546875,0.234375,-0.0998070240020752,-0.06541085243225098,-0.17418575286865234
560,416000000,imu2_frame,0.11752579331055885,-0.1780081826271147,-0.4680094074265141,0.8575942918331481,0.04296875,-0.056640625,0.22265625,-0.08467578887939453,-0.07127594947814941,-0.1750802993774414
560,441000000,imu2_frame,0.11537333571586643,-0.18085284352854686,-0.4651021349152216,0.8588720780714296,0.04296875,-0.056640625,0.22265625,-0.04983925819396973,-0.05380868911743164,-0.12195873260498047
560,466000000,imu2_frame,0.112616904587129,-0.1823083487223892,-0.4623832647721855,0.8603968940238826,0.04296875,-0.056640625,0.22265625,-0.032636165618896484,-0.12772703170776367,-0.16687679290771484
560,491000000,imu2_frame,0.11122682627837865,-0.1814678954782981,-0.4602362697372018,0.8619051989894841,0.04296875,-0.056640625,0.22265625,-0.11921358108520508,-0.131486177444458,-0.10080718994140625
560,516000000,imu2_frame,0.11040347935757373,-0.1788932816208536,-0.4585871832280883,0.8634269285328037,-0.013671875,0.05078125,0.181640625,-0.09212446212768555,-0.09196996688842773,-0.12251091003417969
560,540000000,imu2_frame,0.10977837749151508,-0.17637580347490833,-0.45702255794141616,0.8648529732368363,-0.013671875,0.05078125,0.181640625,-0.06351161003112793,-0.05651712417602539,-0.0997152328491211
560,565000000,imu2_frame,0.11094754262317702,-0.17405170723017527,-0.45552585648403043,0.8659635327602603,-0.013671875,0.05078125,0.181640625,-0.020796537399291992,-0.013766050338745117,-0.07153034210205078
560,591000000,imu2_frame,0.11293193621316581,-0.1745697104277489,-0.45350718840907706,0.8666620010393967,-0.013671875,0.05078125,0.181640625,-0.018721342086791992,0.027621030807495117,-0.059322357177734375
560,616000000,imu2_frame,0.11469168197502144,-0.1758623011321227,-0.4521378998877422,0.8668849915711755,0.001953125,-0.03125,0.138671875,-0.028856277465820312,-0.009443044662475586,-0.04263782501220703
560,641000000,imu2_frame,0.11184084354317701,-0.17648474097923628,-0.4504065944151905,0.8680314865397178,0.001953125,-0.03125,0.138671875,-0.03329110145568848,-0.0764768123626709,-0.13299942016601562
560,665000000,imu2_frame,0.11279890931907961,-0.17867848551394752,-0.44884105236931643,0.8682696093834407,0.001953125,-0.03125,0.138671875,-0.02728271484375,0.006206512451171875,-0.1526327133178711
560,691000000,imu2_frame,0.11428176851231332,-0.18048486813998335,-0.4471547400364596,0.8685721203337792,-0.001953125,-0.029296875,0.15234375,-0.049765586853027344,-0.02953648567199707,-0.13336753845214844
560,716000000,imu2_frame,0.11451958211142242,-0.18314730588112324,-0.4452274981786949,0.8689734199197647,-0.001953125,-0.029296875,0.15234375,-0.024420976638793945,-0.011780261993408203,-0.10947418212890625
560,740000000,imu2_frame,0.11171647212534609,-0.18373992908519973,-0.4434030000560531,0.870145302726461,-0.001953125,-0.029296875,0.15234375,-0.028031349182128906,-0.043485164642333984,-0.07855033874511719
560,766000000,imu2_frame,0.10962050560904818,-0.18217475240804457,-0.44190422630427917,0.8715023574893535,-0.037109375,-0.0390625,0.16796875,-0.027626752853393555,0.008148908615112305,-0.09881019592285156
560,790000000,imu2_frame,0.10650065677324419,-0.18351652133988422,-0.4398590619926901,0.872641565641407,-0.037109375,-0.0390625,0.16796875,-0.007641315460205078,-0.058591604232788086,-0.10631084442138672
560,816000000,imu2_frame,0.10267747542311101,-0.18502811194663632,-0.4379023642004796,0.8737639574037315,-0.060546875,-0.068359375,0.154296875,-0.07428479194641113,-0.0015506744384765625,-0.1110525131225586
560,841000000,imu2_frame,0.10241476307634216,-0.1835501324852173,-0.4369551465171322,0.8745803365619806,-0.060546875,-0.068359375,0.154296875,-0.05612015724182129,-0.02171778678894043,-0.11884689331054688
560,866000000,imu2_frame,0.10301676128058505,-0.1853364237962068,-0.4355274556847281,0.8748450104186908,-0.060546875,-0.068359375,0.154296875,-0.011112451553344727,0.14880657196044922,0.013631820678710938
560,891000000,imu2_frame,0.1036183668377924,-0.1871136301078543,-0.43410529068711373,0.8751024626174848,-0.060546875,-0.068359375,0.154296875,-0.04020404815673828,0.24525666236877441,-0.16631221771240234
560,916000000,imu2_frame,0.10446853209286099,-0.18865405507128366,-0.4320590138371149,0.8756831515277792,-0.044921875,-0.05078125,0.2109375,-0.06566095352172852,0.22400164604187012,-0.15153884887695312
560,940000000,imu2_frame,0.10532948966407492,-0.1899477054488388,-0.4300320166842191,0.8762979130571579,-0.046875,-0.052734375,0.22265625,-0.0869903564453125,0.20459794998168945,-0.13843441009521484
560,966000000,imu2_frame,0.10161299964536183,-0.18991301226724966,-0.42750333146662917,0.8779799244057832,-0.046875,-0.052734375,0.22265625,-0.05079793930053711,-0.10824441909790039,-0.1146554946899414
560,990000000,imu2_frame,0.09878355797333754,-0.18916592728472958,-0.42521800266307747,0.8795724591185534,-0.03515625,-0.0546875,0.234375,-0.07192349433898926,-0.04806876182556152,-0.13127422332763672
561,16000000,imu2_frame,0.09877892188836367,-0.18780866568585552,-0.4232028973299497,0.8808347957338012,-0.025390625,-0.056640625,0.234375,-0.05714893341064453,-0.031743764877319336,-0.1412944793701172
561,40000000,imu2_frame,0.09543316034406689,-0.18912548180851618,-0.4204523935156206,0.8822379774326347,-0.025390625,-0.056640625,0.234375,-0.039687156677246094,-0.016535043716430664,-0.06617069244384766
561,66000000,imu2_frame,0.09304971985608877,-0.18793169890223332,-0.4180732266171625,0.8838768032753989,-0.025390625,-0.056640625,0.234375,-0.04904675483703613,0.0010623931884765625,-0.08374691009521484
561,90000000,imu2_frame,0.09407975220496857,-0.18816366972534684,-0.4161250789337469,0.884637412900294,-0.03125,-0.072265625,0.236328125,-0.051001548767089844,-0.012842655181884766,-0.0782785415649414
561,116000000,imu2_frame,0.09166895730857168,-0.19133390155660543,-0.4130484801620894,0.8856517901618414,-0.03125,-0.072265625,0.236328125,-0.021448850631713867,-0.02630615234375,-0.14164257049560547
561,140000000,imu2_frame,0.08812833256200152,-0.192183726132085,-0.41036824258262894,0.887071991379208,-0.03125,-0.072265625,0.236328125,-0.01221609115600586,-0.10098743438720703,-0.06567859649658203
561,166000000,imu2_frame,0.08474726428473327,-0.19240159684507985,-0.40782873245715356,0.888524198719488,-0.013671875,-0.06640625,0.2109375,-0.05278754234313965,-0.03696751594543457,-0.07546615600585938
561,191000000,imu2_frame,0.08256362288112142,-0.19137287329419284,-0.40572434748202796,0.889914279806854,-0.013671875,-0.06640625,0.2109375,-0.0999903678894043,-0.06334066390991211,-0.20751094818115234
561,215000000,imu2_frame,0.08337825658161117,-0.19047214327680728,-0.40412344050526194,0.8907596049435227,0.025390625,-0.0625,0.1953125,-0.08361172676086426,-0.06577873229980469,-0.2115936279296875
561,240000000,imu2_frame,0.08388061333658495,-0.18927303896800002,-0.4025325276271358,0.8916879070774736,-0.01953125,-0.052734375,0.197265625,-0.06480836868286133,-0.06069040298461914,-0.21885108947753906
561,266000000,imu2_frame,0.08278666926128517,-0.19238668327694453,-0.3999574311516938,0.8922823458731306,-0.01953125,-0.052734375,0.197265625,-0.02078557014465332,-0.018312454223632812,-0.19528770446777344
561,291000000,imu2_frame,0.08164274190819182,-0.19538135979397947,-0.39746674591188036,0.8928498041848856,-0.01953125,-0.052734375,0.197265625,-0.0881032943725586,-0.052229881286621094,-0.21532726287841797
561,316000000,imu2_frame,0.08337358328122356,-0.19499469148545748,-0.3960052319472964,0.8934236241412626,0.009765625,-0.03515625,0.17578125,-0.07249140739440918,-0.0748140811920166,-0.2126903533935547
561,341000000,imu2_frame,0.08243382235500277,-0.19338575698521138,-0.39447470698911746,0.8945369301896096,-0.0078125,-0.0390625,0.169921875,-0.058356523513793945,-0.041971683502197266,-0.22794628143310547
561,365000000,imu2_frame,0.07999695127855443,-0.19544792912517198,-0.3922066513841196,0.8953069514958956,-0.0078125,-0.0390625,0.169921875,-0.0024862289428710938,-0.08199882507324219,-0.1848592758178711
561,390000000,imu2_frame,0.07750964697208261,-0.19797678466878393,-0.39052697909522327,0.8957042625539035,-0.0078125,-0.072265625,0.111328125,-0.06989288330078125,-0.05195736885070801,-0.17307090759277344
561,416000000,imu2_frame,0.07849225897149892,-0.19696490684760187,-0.3901166438227731,0.8960205326690466,-0.00390625,-0.068359375,0.087890625,-0.046538352966308594,-0.06035804748535156,-0.17788124084472656
561,440000000,imu2_frame,0.07977451444277925,-0.19635426853671425,-0.3897447461631395,0.8962031359636389,-0.00390625,-0.068359375,0.087890625,-0.02734065055847168,-0.002793550491333008,-0.022360801696777344
561,466000000,imu2_frame,0.08100247374101058,-0.19874768501181267,-0.38884390919991435,0.8959566793257423,-0.00390625,-0.068359375,0.087890625,0.013855218887329102,0.11762094497680664,0.00388336181640625
561,491000000,imu2_frame,0.08260161234002283,-0.19978091751202492,-0.38777322387278235,0.8960449126490208,-0.01953125,0.00390625,0.11328125,0.005839109420776367,0.08579778671264648,0.01704692840576172
561,515000000,imu2_frame,0.08373463774618921,-0.20042184257330997,-0.38660237610525744,0.8963025149193785,-0.060546875,0.001953125,0.140625,0.0002739429473876953,0.06525826454162598,0.02574443817138672
561,541000000,imu2_frame,0.08026911328140592,-0.20097696745371357,-0.38462723993887665,0.8973444234535185,-0.060546875,0.001953125,0.140625,-0.042850494384765625,0.04976153373718262,-0.023972511291503906
561,566000000,imu2_frame,0.08182768515741233,-0.20097626820350756,-0.3831817259101451,0.897822106260084,-0.0234375,-0.029296875,0.17578125,-0.03529930114746094,0.02735280990600586,-0.019042015075683594
561,591000000,imu2_frame,0.07941964992374415,-0.2031923946087636,-0.3807632274606548,0.8985681580118962,-0.0234375,-0.029296875,0.17578125,-0.020817041397094727,-0.016659021377563477,-0.083343505859375
561,615000000,imu2_frame,0.07969564311831742,-0.20579483854138741,-0.37894386211584896,0.8987205562700826,-0.0234375,-0.06640625,0.171875,-0.06791400909423828,-0.033788442611694336,-0.061682701110839844
561,641000000,imu2_frame,0.07761618252793008,-0.20454423264072702,-0.37722642089101843,0.8999097801918586,-0.0234375,-0.06640625,0.171875,-0.06873893737792969,-0.022023677825927734,-0.08200454711914062
561,666000000,imu2_frame,0.07644053840473737,-0.2031398468998483,-0.3757293653789466,0.900954211201565,-0.0234375,-0.06640625,0.171875,-0.020025253295898438,0.013396501541137695,-0.05767345428466797
561,691000000,imu2_frame,0.07301698419946934,-0.20403743357236045,-0.37350743944599674,0.9019586677881167,-0.0234375,-0.06640625,0.171875,-0.06814384460449219,0.0003159046173095703,-0.09959697723388672
561,716000000,imu2_frame,0.07433138612110143,-0.20370488122175934,-0.37229820785480755,0.9024262910796889,-0.021484375,-0.0546875,0.162109375,-0.05629849433898926,-0.01629042625427246,-0.0984640121459961
561,741000000,imu2_frame,0.0756370319453343,-0.20297078740256727,-0.3712036292952701,0.9029339756913025,-0.01171875,-0.044921875,0.150390625,-0.03748369216918945,-0.030390262603759766,-0.10047054290771484
561,766000000,imu2_frame,0.07364584162393592,-0.20556487446007318,-0.36906833771678893,0.9033869240224163,-0.01171875,-0.044921875,0.150390625,0.01068735122680664,-0.006125450134277344,-0.042601585388183594
561,790000000,imu2_frame,0.07236990020442956,-0.20842514636056744,-0.3670187075262807,0.9036696433070637,-0.025390625,-0.05859375,0.1640625,-0.05307459831237793,0.003723621368408203,-0.023097991943359375
561,815000000,imu2_frame,0.07269956077073657,-0.20731654981761302,-0.3657762117151843,0.9044016723661846,-0.03515625,-0.06640625,0.169921875,-0.03588390350341797,0.009827136993408203,-0.031165122985839844
561,841000000,imu2_frame,0.0740003080868716,-0.20704524467342897,-0.3644017916469052,0.9049130098002203,-0.009765625,-0.0703125,0.171875,-0.02583909034729004,-0.006400346755981445,-0.029634475708007812
561,866000000,imu2_frame,0.07106034658790626,-0.2092386064809869,-0.3620045336853145,0.9056060679412321,-0.009765625,-0.0703125,0.171875,0.09967327117919922,-0.15257620811462402,-0.1373128890991211
561,891000000,imu2_frame,0.06828010049245958,-0.21129905442036107,-0.3597223166411543,0.9062507337310807,0.0,-0.060546875,0.158203125,0.03781604766845703,-0.1093754768371582,-0.12794780731201172
561,916000000,imu2_frame,0.06560171000478636,-0.21308935516966784,-0.3575406488896864,0.906892511133136,0.005859375,-0.044921875,0.146484375,-0.0182037353515625,-0.0662541389465332,-0.12010574340820312
561,941000000,imu2_frame,0.06269614348076093,-0.21426838160094053,-0.355398172735813,0.9076620478211033,0.005859375,-0.044921875,0.146484375,0.05192375183105469,-0.20636558532714844,-0.12144756317138672
561,965000000,imu2_frame,0.060640089151262615,-0.216573714327577,-0.3533028695054141,0.9080725126603736,0.005859375,-0.044921875,0.146484375,-0.046533823013305664,-0.025165796279907227,-0.10308647155761719
561,990000000,imu2_frame,0.062173510889359504,-0.2160281036449099,-0.35220261857163526,0.9085260747224363,0.005859375,-0.044921875,0.146484375,-0.02953195571899414,-0.04453706741333008,-0.10401344299316406
562,16000000,imu2_frame,0.0592352281958934,-0.21656421204957396,-0.3503888359345534,0.9092957678623367,-0.021484375,0.013671875,0.111328125,-0.06463217735290527,0.010746240615844727,-0.10645580291748047
562,41000000,imu2_frame,0.057638095046045244,-0.21445343506911646,-0.3492279888704336,0.9103446523026493,-0.021484375,0.013671875,0.111328125,-0.08283710479736328,-0.056017398834228516,-0.1317892074584961
562,66000000,imu2_frame,0.05922080986545214,-0.21302376903498058,-0.3485569386978934,0.9108357865117971,-0.021484375,0.013671875,0.111328125,-0.10018277168273926,0.017656803131103516,-0.12059307098388672
562,90000000,imu2_frame,0.06105275032907425,-0.21240273825149494,-0.3478649305977439,0.9111243759886734,-0.021484375,0.013671875,0.111328125,-0.07866191864013672,-0.008194684982299805,-0.16051483154296875
562,115000000,imu2_frame,0.0635079889084275,-0.21256837214017707,-0.34766516296174577,0.9109941585835031,0.0234375,-0.021484375,0.0546875,-0.0646214485168457,-0.05205535888671875,-0.15316200256347656
562,141000000,imu2_frame,0.06233456861248702,-0.21094824924880148,-0.3471182207672583,0.9116601222528786,0.013671875,-0.021484375,0.05078125,-0.04718303680419922,-0.018724441528320312,-0.16945362091064453
562,166000000,imu2_frame,0.06356678176458377,-0.21315006214460785,-0.3464993182349693,0.9112982704507592,0.013671875,-0.021484375,0.05078125,-0.03821754455566406,-0.013501167297363281,-0.1130228042602539
562,190000000,imu2_frame,0.06524498424389653,-0.21443446290423065,-0.3458346224514573,0.9111308177555217,-0.001953125,-0.00390625,0.078125,-0.04988265037536621,-0.04909944534301758,-0.09806060791015625
562,216000000,imu2_frame,0.06347276412009083,-0.2127686581346209,-0.34490417941798684,0.9119988011782435,-0.00390625,-0.005859375,0.078125,-0.03699088096618652,-0.003506898880004883,-0.11642074584960938
562,241000000,imu2_frame,0.06530743104535582,-0.2140840831025836,-0.34424213143557936,0.9118115483788696,0.00390625,-0.001953125,0.07421875,-0.04809975624084473,-0.042046546936035156,-0.10083675384521484
562,265000000,imu2_frame,0.06292119746965169,-0.2148877662697429,-0.34291519328140607,0.9122901627406498,0.00390625,-0.001953125,0.07421875,0.0702054500579834,-0.11323142051696777,-0.029761314392089844
562,291000000,imu2_frame,0.060249618264004955,-0.21539179276941658,-0.3415086722690789,0.9128790642092901,0.00390625,-0.001953125,0.07421875,0.039171457290649414,-0.10280442237854004,-0.02804851531982422
562,316000000,imu2_frame,0.059481829083275685,-0.21335710465274035,-0.3408270291009693,0.9136616409466443,0.00390625,-0.001953125,0.07421875,-0.011844635009765625,0.0006182193756103516,-0.04689311981201172
562,341000000,imu2_frame,0.0607757101431987,-0.2150751199349923,-0.3406538375929687,0.9132381774623322,-0.0234375,-0.01953125,0.03125,-0.03229856491088867,-0.032679080963134766,-0.029473304748535156
562,365000000,imu2_frame,0.05832588093266181,-0.21635125058108265,-0.33985490061096496,0.9133941506907856,-0.0234375,-0.01953125,0.03125,0.0051517486572265625,-0.10753273963928223,-0.17675495147705078
562,391000000,imu2_frame,0.05852650370063166,-0.21873980112777353,-0.33938732661108084,0.912986193927896,-0.0234375,-0.01953125,0.03125,-0.03493452072143555,-0.01122283935546875,-0.1520824432373047
562,415000000,imu2_frame,0.05969522669884721,-0.22074439034191826,-0.33921886150906044,0.9124905249033793,0.0078125,-0.01171875,0.01171875,-0.06101655960083008,-0.04407548904418945,-0.13215923309326172
562,440000000,imu2_frame,0.05908197001993199,-0.2188374833179509,-0.33907533365618614,0.9130429315314673,0.01171875,-0.005859375,0.0234375,-0.03363919258117676,-0.02054595947265625,-0.14995670318603516
562,466000000,imu2_frame,0.061625500235116745,-0.21855065167414056,-0.3392978939362426,0.912860805130777,0.01171875,-0.005859375,0.0234375,-0.04965496063232422,0.013370275497436523,-0.06828880310058594
562,490000000,imu2_frame,0.062037467335931816,-0.21657279284625683,-0.3393729141852956,0.9132763016539385,0.01171875,-0.005859375,0.0234375,-0.013316869735717773,-0.02076101303100586,-0.08801746368408203
562,515000000,imu2_frame,0.061580264892872716,-0.21884542753977396,-0.33866548750434156,0.913028059477968,0.001953125,0.001953125,0.02734375,-0.05667567253112793,-0.024324893951416016,-0.06978893280029297
562,541000000,imu2_frame,0.062133169866003216,-0.21665427441209612,-0.33885462994221466,0.9134429015259221,0.001953125,-0.00390625,0.01953125,-0.015471935272216797,-0.021017789840698242,-0.08709430694580078
562,566000000,imu2_frame,0.05968198832166291,-0.2165779241539828,-0.33820000309908016,0.9138669601987516,0.001953125,-0.00390625,0.01953125,-0.03289294242858887,-0.04867982864379883,-0.09358024597167969
562,591000000,imu2_frame,0.05730462731669271,-0.2162611768303536,-0.33787433244864573,0.9142145363952748,-0.001953125,-0.001953125,-0.005859375,-0.04478764533996582,-0.003132343292236328,-0.10169696807861328
562,616000000,imu2_frame,0.05947239502977912,-0.21521136559627455,-0.338496588012106,0.9140936288213428,-0.001953125,-0.001953125,-0.005859375,-0.049535512924194336,-0.0022547245025634766,-0.07435417175292969
562,640000000,imu2_frame,0.06165790010192977,-0.21431066039524918,-0.339222159758004,0.9138914435123506,0.0078125,-0.009765625,-0.01953125,-0.01726055145263672,-0.03814220428466797,-0.07674121856689453
562,666000000,imu2_frame,0.06157841896989981,-0.21680580229454768,-0.3390845542832758,0.9133591886301343,0.0078125,-0.009765625,-0.01953125,-0.021182775497436523,-0.012962102890014648,-0.01685047149658203
562,691000000,imu2_frame,0.06257835068420509,-0.21903026876526815,-0.3391739986649257,0.9127270621713283,0.0078125,-0.009765625,-0.01953125,-0.05145454406738281,-0.04516863822937012,-0.06578445434570312
562,716000000,imu2_frame,0.06165014244577634,-0.21729091090833652,-0.3394573718707971,0.9131005490391582,0.0078125,-0.01953125,-0.017578125,-0.027859926223754883,-0.018758773803710938,-0.08286285400390625
562,741000000,imu2_frame,0.0627818646495311,-0.21959516879996221,-0.33957775785309896,0.9124271728101405,0.005859375,-0.01953125,-0.017578125,-0.05840587615966797,-0.05391359329223633,-0.06044197082519531
562,765000000,imu2_frame,0.0614912292149878,-0.21811395296212613,-0.33975662253134836,0.9128036862869016,0.005859375,-0.01953125,-0.017578125,-0.0810394287109375,-0.09651970863342285,-0.07233428955078125
562,791000000,imu2_frame,0.06360969951482225,-0.21696344489601072,-0.3405462680447386,0.9126384328020001,0.005859375,-0.01953125,-0.017578125,-0.08381152153015137,-0.01653313636779785,-0.11991024017333984
562,815000000,imu2_frame,0.06568499986909852,-0.21597295008855638,-0.3412413996277613,0.9124666968182066,0.037109375,-0.033203125,-0.021484375,-0.05070972442626953,-0.04967665672302246,-0.1230478286743164
562,841000000,imu2_frame,0.06389959163666602,-0.21537895802974974,-0.34111299319623484,0.9127818318192976,0.033203125,-0.0390625,-0.01171875,-0.05352139472961426,-0.013730049133300781,-0.13257503509521484
562,866000000,imu2_frame,0.062158835235057004,-0.21733355628205073,-0.34063077497850763,0.9126188030352864,0.033203125,-0.0390625,-0.01171875,0.01731562614440918,-0.0715639591217041,-0.08127689361572266
562,890000000,imu2_frame,0.060268571544900694,-0.21885334575161136,-0.3401708503843288,0.9125539462881442,0.033203125,-0.0390625,-0.01171875,0.016412019729614258,-0.08107781410217285,-0.06893539428710938
562,916000000,imu2_frame,0.05807234733394305,-0.21961565229113778,-0.34004678796099574,0.912559449976424,0.013671875,-0.005859375,-0.0390625,-0.011957168579101562,-0.0464472770690918,-0.06748104095458984
562,940000000,imu2_frame,0.05603404071540984,-0.22001441316446654,-0.3399920077171017,0.9126112419697083,0.013671875,0.0,-0.04296875,-0.03290414810180664,-0.012561321258544922,-0.06859970092773438
562,965000000,imu2_frame,0.058681836320013156,-0.22041751208281088,-0.34084795437094273,0.9120280886324054,0.013671875,0.0,-0.04296875,-0.018991708755493164,0.04779672622680664,-0.027945518493652344
562,990000000,imu2_frame,0.061039093741677236,-0.22078962564432777,-0.34173665993508234,0.9114506160508347,-0.009765625,-0.001953125,-0.041015625,-0.00636744499206543,0.00014710426330566406,-0.019220352172851562
563,16000000,imu2_frame,0.058608220253114726,-0.22147521756061184,-0.3416874262285407,0.9114622906530788,-0.009765625,-0.001953125,-0.041015625,0.00022029876708984375,-0.07421112060546875,-0.09319400787353516
563,41000000,imu2_frame,0.05690687633921691,-0.22257686677605223,-0.34166922814025696,0.9113085560574474,0.046875,-0.017578125,-0.056640625,-0.030121564865112305,-0.05100679397583008,-0.08747386932373047
563,66000000,imu2_frame,0.059881187853950135,-0.2233557760049151,-0.3425943248194139,0.9105797984075706,0.046875,-0.017578125,-0.056640625,-0.09407734870910645,0.15325379371643066,-0.1520223617553711
563,91000000,imu2_frame,0.06283571198788317,-0.22303325282959072,-0.3436654676396314,0.9100559805766132,0.046875,-0.017578125,-0.056640625,-0.14308643341064453,-0.014489173889160156,-0.22196483612060547
563,116000000,imu2_frame,0.06556612705012663,-0.22254646307846151,-0.34456513941802175,0.9096422480584071,0.046875,-0.029296875,-0.0390625,-0.11313509941101074,-0.06317663192749023,-0.21935081481933594
563,140000000,imu2_frame,0.06704281152014965,-0.2210454935264854,-0.3454562095190419,0.9095626193505547,0.02734375,-0.02734375,-0.041015625,-0.07499885559082031,-0.08307766914367676,-0.22853469848632812
563,166000000,imu2_frame,0.0648541985078738,-0.22143254814767027,-0.3454179643853156,0.9096416818927309,0.02734375,-0.02734375,-0.041015625,-0.01891779899597168,-0.1990518569946289,-0.15270709991455078
563,191000000,imu2_frame,0.06288945849287654,-0.2227012136751404,-0.34527541775148013,0.9095240356002876,0.02734375,-0.02734375,-0.041015625,-0.015334606170654297,-0.13675570487976074,-0.18566417694091797
563,215000000,imu2_frame,0.06153924797568429,-0.22316787743001196,-0.34589769017596966,0.9092655318293438,0.044921875,0.0234375,-0.1171875,-0.030869722366333008,-0.11830520629882812,-0.18488025665283203
563,241000000,imu2_frame,0.05992877783775442,-0.22328062035830146,-0.3467603849047592,0.909016799415714,0.0234375,0.04296875,-0.12890625,-0.04166674613952637,-0.0939180850982666,-0.18771934509277344
563,265000000,imu2_frame,0.06203110248940033,-0.22454531064410463,-0.34808393866717346,0.9080578822044546,0.0234375,0.04296875,-0.12890625,-0.04405522346496582,-0.06635284423828125,-0.13258075714111328
563,291000000,imu2_frame,0.06057574148457995,-0.2232178594062712,-0.34917547171428087,0.9080643461444706,0.0234375,0.04296875,-0.12890625,-0.02916264533996582,-0.18862581253051758,-0.10861492156982422
563,316000000,imu2_frame,0.05998596493125885,-0.22170570156093997,-0.3513705904892928,0.907627111784263,0.056640625,0.091796875,-0.24609375,-0.0018756389617919922,-0.1768341064453125,-0.12315654754638672
563,341000000,imu2_frame,0.05963183703096775,-0.22068939498470982,-0.35412890552451015,0.9068257568163839,0.0703125,0.09375,-0.306640625,0.020398378372192383,-0.17453384399414062,-0.13277435302734375
563,365000000,imu2_frame,0.06327262186727863,-0.21818318684247792,-0.35774036861240976,0.9057673547696218,0.0703125,0.09375,-0.306640625,-0.057247161865234375,-0.08347344398498535,-0.18458938598632812
563,391000000,imu2_frame,0.06304334018606833,-0.2166838821024081,-0.36210236039125976,0.9044089302380266,0.03515625,0.13671875,-0.431640625,-0.021170377731323242,-0.08572673797607422,-0.19790267944335938
563,415000000,imu2_frame,0.06630802289997968,-0.21310336725211065,-0.3670724478803606,0.9030216049309273,0.03515625,0.13671875,-0.431640625,-0.18817567825317383,-0.02372884750366211,-0.036131858825683594
563,441000000,imu2_frame,0.07014126778425762,-0.20944854041112693,-0.37318620275808007,0.9010791139207871,0.0859375,0.1171875,-0.509765625,-0.07982635498046875,-0.08753776550292969,-0.05609416961669922
563,466000000,imu2_frame,0.07479455898209597,-0.2064824109323805,-0.37913432039598155,0.8989037518111173,0.0859375,0.1171875,-0.509765625,-0.09334015846252441,-0.05149364471435547,-0.1334362030029297
563,490000000,imu2_frame,0.07667922895571339,-0.20316444961318866,-0.3844753497286823,0.8972308553048848,0.0859375,0.1171875,-0.509765625,-0.08065128326416016,-0.19591927528381348,-0.08410835266113281
563,515000000,imu2_frame,0.07643482534507964,-0.20051970354996362,-0.391532606103581,0.8947914753284365,-0.0234375,0.044921875,-0.634765625,-0.015996456146240234,-0.19577264785766602,-0.10571002960205078
563,540000000,imu2_frame,0.07579494456545907,-0.19890822478845288,-0.398618733076017,0.8920727269290863,-0.01171875,0.029296875,-0.658203125,0.028364896774291992,-0.19576692581176758,-0.12019634246826172
563,566000000,imu2_frame,0.07998945354091322,-0.1981383441464566,-0.4065685010357811,0.8882820148278612,-0.01171875,0.029296875,-0.658203125,-0.16792869567871094,0.5559954643249512,-0.1524677276611328
563,591000000,imu2_frame,0.08395224567710981,-0.19762250757123997,-0.414117965813594,0.8845358530536997,-0.01171875,0.029296875,-0.658203125,-0.1006171703338623,0.5463993549346924,-0.17500877380371094
563,616000000,imu2_frame,0.08614816383676588,-0.1962306885573588,-0.42063165519045187,0.8815560228298593,-0.15625,0.06640625,-0.54296875,-0.0363774299621582,0.49973225593566895,-0.1784229278564453
563,641000000,imu2_frame,0.08891284600567563,-0.19519178213621857,-0.42694710946468833,0.878470739251687,-0.1015625,0.080078125,-0.546875,0.027005672454833984,0.44190120697021484,-0.1769123077392578
563,666000000,imu2_frame,0.0916206790157816,-0.19422699841484212,-0.4332020653985228,0.8753385029792201,-0.1015625,0.080078125,-0.546875,0.01114034652709961,0.03766226768493652,-0.21376323699951172
563,691000000,imu2_frame,0.09407576284599856,-0.1938647360703093,-0.438980842949235,0.8722740592708874,-0.064453125,0.119140625,-0.54296875,0.06036972999572754,-0.017537593841552734,-0.20760059356689453
563,716000000,imu2_frame,0.09484913409483318,-0.1935811740440634,-0.4446171820490231,0.8693937728348233,-0.103515625,0.125,-0.546875,0.09318804740905762,-0.044280052185058594,-0.2068920135498047
563,741000000,imu2_frame,0.09640141396341559,-0.19374647724573918,-0.4500781375379657,0.866371017550262,0.013671875,0.134765625,-0.56640625,0.12560510635375977,-0.08708524703979492,-0.19983673095703125
563,766000000,imu2_frame,0.10084953010585977,-0.19056401051090704,-0.4564809284610873,0.8632148586109541,0.013671875,0.134765625,-0.56640625,-0.13980984687805176,0.004191398620605469,-0.2065887451171875
563,790000000,imu2_frame,0.10533156767760209,-0.1881837106766693,-0.46250676857055567,0.8599881632400302,0.037109375,0.109375,-0.564453125,-0.035375118255615234,-0.06571531295776367,-0.20614910125732422
563,816000000,imu2_frame,0.10851455308280605,-0.18407539880284693,-0.46908284661526456,0.8569143027958698,0.037109375,0.109375,-0.564453125,-0.06488204002380371,-0.09923958778381348,-0.0782022476196289
563,840000000,imu2_frame,0.1117788845397818,-0.18234601117118143,-0.47433949473976017,0.853965723498918,0.263671875,0.0546875,-0.55078125,0.016010761260986328,-0.15035796165466309,-0.07653141021728516
563,866000000,imu2_frame,0.11855192433833997,-0.18350689963995923,-0.4797790614585581,0.8497545005506894,0.263671875,0.0546875,-0.55078125,0.012944340705871582,0.555945634841919,-0.03774452209472656
563,891000000,imu2_frame,0.1251718277514536,-0.18434960863070693,-0.48501868054277625,0.8456382884304672,0.263671875,0.0546875,-0.55078125,0.049619197845458984,-0.10588359832763672,-0.03920936584472656
563,916000000,imu2_frame,0.1228638661880176,-0.1822480344244835,-0.49022962082259836,0.8434245924810805,-0.140625,0.06640625,-0.5,0.0828636884689331,-0.06108450889587402,-0.06545162200927734
563,941000000,imu2_frame,0.12323738968483743,-0.18273495706456916,-0.49502004362145596,0.8404615622759255,0.0625,0.0625,-0.525390625,0.10054516792297363,-0.08186912536621094,-0.06018352508544922
563,966000000,imu2_frame,0.12457572890002419,-0.17959552063342205,-0.500624075939151,0.8376167807103132,0.0625,0.0625,-0.525390625,-0.04177367687225342,-0.19952678680419922,-0.07593059539794922
563,991000000,imu2_frame,0.12611290967051364,-0.17635606848669239,-0.5062545447440728,0.8346858133743053,0.0625,0.0625,-0.525390625,-0.10205018520355225,-0.24424052238464355,-0.047969818115234375
564,16000000,imu2_frame,0.12617222137066603,-0.17292521812559594,-0.51245141821218,0.8316074695810111,-0.021484375,0.0546875,-0.57421875,-0.019797563552856445,-0.22461199760437012,-0.07110118865966797
564,40000000,imu2_frame,0.12621481519797037,-0.17052487856094248,-0.5182788429075215,0.82847940663046,0.033203125,0.0546875,-0.591796875,0.044452786445617676,-0.2129659652709961,-0.0870065689086914
564,65000000,imu2_frame,0.1305489171943348,-0.16917768463798272,-0.5244274463952048,0.8242037034054885,0.033203125,0.0546875,-0.591796875,-0.09044897556304932,0.18204092979431152,-0.07811260223388672
564,91000000,imu2_frame,0.13403173663208773,-0.16784962563559505,-0.5302787608837113,0.8201624427544904,-0.041015625,0.05078125,-0.5390625,-0.004759788513183594,0.13093805313110352,-0.06885051727294922
564,116000000,imu2_frame,0.13720984173007414,-0.16767340978745718,-0.5354687314844705,0.8162918133762386,-0.01171875,0.044921875,-0.525390625,0.057614684104919434,0.07518863677978516,-0.05315685272216797
564,141000000,imu2_frame,0.13869244503645803,-0.16793579543182308,-0.5402535363688507,0.8128272207200254,-0.072265625,0.048828125,-0.501953125,0.09329092502593994,0.04247117042541504,-0.04343986511230469
564,165000000,imu2_frame,0.13811991158626238,-0.16435271283926578,-0.545512299438952,0.8101403625092407,-0.072265625,0.048828125,-0.501953125,0.014648079872131348,-0.11168169975280762,-0.06589412689208984
564,190000000,imu2_frame,0.13674673497672235,-0.16191229880158753,-0.5504406557613979,0.8075269793975639,-0.0546875,0.05859375,-0.486328125,0.060097336769104004,-0.07252383232116699,-0.088836669921875
564,216000000,imu2_frame,0.13541383843181215,-0.15911340767127213,-0.5556144699977817,0.8047599496679009,-0.0546875,0.05859375,-0.486328125,0.0731741189956665,-0.1473255157470703,-0.07833480834960938
564,240000000,imu2_frame,0.134078160874176,-0.15748860358809727,-0.5601827984953343,0.8021319210618696,-0.046875,0.068359375,-0.4921875,0.10429251194000244,-0.11583685874938965,-0.0954275131225586
564,265000000,imu2_frame,0.13312377198260442,-0.15444342695940408,-0.5652302500668852,0.7993372589911503,-0.046875,0.068359375,-0.4921875,0.04597073793411255,-0.0755000114440918,-0.15413475036621094
564,291000000,imu2_frame,0.13444065006636088,-0.15009457651946256,-0.5708143743612629,0.7959700243927139,-0.046875,0.068359375,-0.4921875,0.0006821751594543457,-0.055556297302246094,-0.055950164794921875
564,316000000,imu2_frame,0.1339556296689013,-0.14794448855208628,-0.5759072441046329,0.7927793916184228,0.025390625,0.0546875,-0.517578125,0.0512847900390625,-0.03039836883544922,-0.07101917266845703
564,340000000,imu2_frame,0.13380060117946163,-0.1486151832591541,-0.5802898842545898,0.7894774073149006,0.0078125,0.04296875,-0.515625,0.06020534038543701,-0.039620399475097656,-0.0679473876953125
564,366000000,imu2_frame,0.1375607363893512,-0.14644717834449106,-0.5857451303479885,0.7851960965469545,0.0078125,0.04296875,-0.515625,-0.028167366981506348,0.040033817291259766,-0.021445274353027344
564,391000000,imu2_frame,0.14055803275144055,-0.14675464148837813,-0.5904436234450616,0.7810780000510377,0.0078125,0.04296875,-0.515625,0.06521850824356079,0.06257796287536621,-0.08151531219482422
564,416000000,imu2_frame,0.14300123746493051,-0.14870354004631253,-0.5941958646628069,0.7774118455997521,0.091796875,0.017578125,-0.451171875,0.08480584621429443,0.002121448516845703,-0.0567169189453125
564,441000000,imu2_frame,0.14354238039824702,-0.15007941996798424,-0.5977249180702832,0.774336280339202,0.0390625,0.0390625,-0.4296875,0.08910572528839111,-0.023816823959350586,-0.04564857482910156
564,466000000,imu2_frame,0.14601906805205556,-0.15127302203730178,-0.6013282305474541,0.770843216040447,0.0390625,0.0390625,-0.4296875,0.12059187889099121,0.11548519134521484,-0.06366539001464844
564,490000000,imu2_frame,0.14738836185261625,-0.1519060154779036,-0.6040458171338589,0.7683292810085519,-0.0234375,0.083984375,-0.35546875,0.14244234561920166,0.08658123016357422,-0.052059173583984375
564,516000000,imu2_frame,0.15093500953965144,-0.14961485138580755,-0.6076634057420305,0.7652314711654667,-0.0234375,0.083984375,-0.35546875,0.007992565631866455,0.019859790802001953,-0.048786163330078125
564,541000000,imu2_frame,0.15303007385101008,-0.1495021803713143,-0.6107624051327399,0.7623648595245247,-0.060546875,0.08203125,-0.3671875,0.052211225032806396,-0.010611534118652344,-0.03699970245361328
564,565000000,imu2_frame,0.15336578291138847,-0.1454367685762419,-0.6145410010942448,0.7600437098957934,-0.060546875,0.08203125,-0.3671875,-0.09574335813522339,-0.1623072624206543,0.019707679748535156
564,591000000,imu2_frame,0.1549508029142254,-0.14104248127288982,-0.6186309913905077,0.7572271545869316,-0.060546875,0.08203125,-0.3671875,-0.14360877871513367,-0.09674429893493652,-0.07347393035888672
564,616000000,imu2_frame,0.15523074916889285,-0.13679936035870952,-0.6225284777374054,0.7547500539409462,-0.060546875,0.08203125,-0.3671875,-0.09803076088428497,-0.2048356533050537,-0.05185127258300781
564,640000000,imu2_frame,0.15515010715981004,-0.13357878787650942,-0.6265789630460524,0.751986671920371,-0.01953125,0.02734375,-0.40234375,-0.03199848532676697,-0.16665220260620117,-0.06936168670654297
564,665000000,imu2_frame,0.15732703124251918,-0.13043278139827844,-0.6307405027880604,0.7485999685544937,-0.01953125,0.02734375,-0.40234375,-0.011877883225679398,-0.08217215538024902,-0.19339752197265625
564,690000000,imu2_frame,0.16021315888825924,-0.12990479779264263,-0.6343250612173517,0.7450424175448679,-0.01953125,0.02734375,-0.40234375,0.0126279816031456,-0.0025534629821777344,-0.2172374725341797
564,716000000,imu2_frame,0.1623547524955152,-0.12989528160842673,-0.6380619536054402,0.7413805321959813,-0.0546875,0.04296875,-0.42578125,0.06047782301902771,-0.031490325927734375,-0.2037830352783203
564,741000000,imu2_frame,0.16332904029115633,-0.1307845688083619,-0.6414696838701319,0.7380621016111949,-0.021484375,0.046875,-0.4296875,0.07910493016242981,-0.0548250675201416,-0.19304656982421875
564,765000000,imu2_frame,0.16619183953820443,-0.12821744043144342,-0.645428485057855,0.7344131201960102,-0.021484375,0.046875,-0.4296875,-0.09548768401145935,0.05126953125,-0.03135204315185547
564,790000000,imu2_frame,0.16686784795311324,-0.12437122723735734,-0.6498031999747594,0.7310558942088718,-0.021484375,0.046875,-0.4296875,-0.00931134819984436,-0.10102438926696777,-0.08109283447265625
564,815000000,imu2_frame,0.16614565356677435,-0.12072358875682214,-0.653954689681424,0.7281240970893734,-0.052734375,0.056640625,-0.4140625,0.054042667150497437,-0.044652462005615234,-0.10326862335205078
564,841000000,imu2_frame,0.16556733324772574,-0.1167852642194367,-0.6582785744106504,0.724995157704046,-0.052734375,0.056640625,-0.4140625,0.04962122440338135,-0.09910321235656738,-0.1682720184326172
564,866000000,imu2_frame,0.16673134393797598,-0.11725755431691987,-0.6614985973939808,0.7217138841327961,-0.052734375,0.056640625,-0.4140625,0.1110730767250061,0.03401589393615723,-0.15855789184570312
564,891000000,imu2_frame,0.1677360934807162,-0.1183309874404656,-0.6643743220124734,0.7186578745172556,-0.001953125,0.0546875,-0.38671875,0.12541955709457397,0.00932621955871582,-0.14704513549804688
564,916000000,imu2_frame,0.1673521594443272,-0.11902433003470513,-0.6673506524444893,0.7158697998037244,-0.001953125,0.0546875,-0.38671875,0.12691831588745117,-0.031163692474365234,-0.10727691650390625
564,940000000,imu2_frame,0.1667366392815549,-0.11983726935049731,-0.6701832328140884,0.7132267216324459,-0.005859375,0.033203125,-0.37890625,0.1229366660118103,-0.03117656707763672,-0.10750198364257812
564,966000000,imu2_frame,0.16572648530173922,-0.12040725790805401,-0.673313960068406,0.7104119477384913,-0.005859375,0.033203125,-0.37890625,0.04430580139160156,-0.022815465927124023,-0.0684194564819336
564,991000000,imu2_frame,0.1684480532396929,-0.11778523273925554,-0.6768615361738836,0.706831205562295,-0.005859375,0.033203125,-0.37890625,0.05833476781845093,-0.022465944290161133,-0.06285285949707031
565,16000000,imu2_frame,0.17022000254424502,-0.11874775550444873,-0.6796693713951985,0.7035436495937893,-0.005859375,0.033203125,-0.37890625,0.046389102935791016,-0.016186237335205078,-0.04667472839355469
565,40000000,imu2_frame,0.16887110640884595,-0.11892799929752049,-0.6824761303347561,0.7011169744961522,-0.080078125,0.03125,-0.3671875,0.04089897871017456,0.0014345645904541016,-0.05477428436279297
565,66000000,imu2_frame,0.1678933105226202,-0.11499148571657938,-0.6863479647894147,0.6982229341147975,-0.080078125,0.03125,-0.3671875,-0.012262403964996338,-0.1623396873474121,-0.0049877166748046875
565,91000000,imu2_frame,0.16736353108490204,-0.11100400226176278,-0.6900752496388778,0.695315546914136,-0.080078125,0.03125,-0.3671875,0.014491796493530273,-0.06112384796142578,-0.06513786315917969
565,116000000,imu2_frame,0.16617489043879763,-0.10885427123170648,-0.6937614314707438,0.692265649607094,0.001953125,0.025390625,-0.396484375,0.046140313148498535,-0.013911008834838867,-0.08212471008300781
565,141000000,imu2_frame,0.16604934672262667,-0.11013325160681246,-0.6967411195170066,0.689093675575163,-0.00390625,0.01953125,-0.3984375,0.043625831604003906,-0.025652170181274414,-0.0774698257446289
565,165000000,imu2_frame,0.16878977489030766,-0.10815006790220935,-0.700098982271067,0.6853283809446701,-0.00390625,0.01953125,-0.3984375,-0.06470727920532227,0.008837699890136719,-0.10705947875976562
565,191000000,imu2_frame,0.17099009163308534,-0.10500409955860826,-0.7039370786644058,0.6813289344513539,-0.00390625,0.01953125,-0.3984375,-0.049537479877471924,-0.05023002624511719,-0.10555076599121094
565,216000000,imu2_frame,0.17346793585492276,-0.10211691568967865,-0.7074726376162025,0.6774684330539933,0.015625,0.033203125,-0.392578125,0.04270315170288086,-0.03746819496154785,-0.10055732727050781
565,241000000,imu2_frame,0.17634205838362524,-0.1023074308125215,-0.7103479773489504,0.6736782756789937,0.015625,0.033203125,-0.392578125,0.023193359375,0.0854184627532959,-0.04108428955078125
565,266000000,imu2_frame,0.17958007896100073,-0.10094224877964013,-0.7134803056412776,0.6697070337944041,0.015625,0.033203125,-0.392578125,-0.01222383975982666,0.03042769432067871,-0.059136390686035156
565,291000000,imu2_frame,0.18226887275518472,-0.10094537557456208,-0.7157681069319874,0.6665313993156391,-0.00390625,0.03125,-0.322265625,0.0396503210067749,0.001989603042602539,-0.040106773376464844
565,316000000,imu2_frame,0.184495337864539,-0.10156717969480422,-0.7179390517486011,0.6634825516088666,-0.00390625,0.03125,-0.322265625,0.041425466537475586,0.12331104278564453,-0.0646514892578125
565,340000000,imu2_frame,0.18508605025206773,-0.10125299405820339,-0.7197043695304673,0.6614503803575074,-0.150390625,0.046875,-0.271484375,0.06420004367828369,0.12391424179077148,-0.061629295349121094
565,366000000,imu2_frame,0.18262459049456947,-0.09748449867124243,-0.7225169045989616,0.6596319837865977,-0.150390625,0.046875,-0.271484375,0.12697076797485352,-0.29015064239501953,-0.13301563262939453
565,391000000,imu2_frame,0.1800723770161264,-0.09417679972438876,-0.7251571628679678,0.6579147046317737,-0.150390625,0.046875,-0.271484375,0.18509185314178467,-0.32262277603149414,-0.16350269317626953
565,416000000,imu2_frame,0.1772704879734329,-0.09214946101410387,-0.7275556336721107,0.6563127690670392,-0.150390625,0.046875,-0.271484375,0.14358139038085938,-0.06521272659301758,-0.10842609405517578
565,440000000,imu2_frame,0.17634822538834274,-0.09207234506821727,-0.7297864073006547,0.6540915734017864,-0.0078125,0.080078125,-0.318359375,0.14313924312591553,-0.04863619804382324,-0.1150808334350586
565,466000000,imu2_frame,0.17787944639604272,-0.09303054301152969,-0.7318151666936865,0.6512685946780399,-0.0078125,0.080078125,-0.318359375,0.05162990093231201,0.0023894309997558594,-0.02289104461669922
565,491000000,imu2_frame,0.18028106996046772,-0.0895628735786561,-0.7345156551386175,0.6480462790931913,-0.0078125,0.080078125,-0.318359375,-0.007052421569824219,-0.011024236679077148,-0.022357940673828125
565,515000000,imu2_frame,0.18262020175943494,-0.08711044228129305,-0.7369473604274348,0.6449575340392087,0.041015625,0.03515625,-0.296875,0.07153952121734619,0.0014383792877197266,-0.014233589172363281
565,541000000,imu2_frame,0.18159432980894324,-0.08795375630596879,-0.7391111634378826,0.6426525688226964,-0.00390625,0.037109375,-0.294921875,0.05777573585510254,0.006680011749267578,-0.018650054931640625
565,565000000,imu2_frame,0.18077526232558563,-0.0887715872535439,-0.7410417341552408,0.6405443451220185,-0.021484375,0.0390625,-0.29296875,0.04614758491516113,0.009255409240722656,-0.021627426147460938
565,590000000,imu2_frame,0.1790248240138792,-0.08726032121659877,-0.7435643821741789,0.6383163465632911,-0.021484375,0.0390625,-0.29296875,0.09141039848327637,-0.06064319610595703,-0.03913593292236328
565,616000000,imu2_frame,0.17720833025911906,-0.08676207897517602,-0.7461701930992038,0.6358455726581552,-0.013671875,0.03125,-0.3125,0.08444082736968994,-0.026594877243041992,-0.05347919464111328
565,640000000,imu2_frame,0.1757015864563967,-0.08701442766236266,-0.7485040529528648,0.6334817476521576,-0.03125,0.025390625,-0.32421875,0.07136154174804688,-0.007393360137939453,-0.0630178451538086
565,666000000,imu2_frame,0.1772108217969637,-0.08348371367590705,-0.751463824275599,0.6300229479900044,-0.03125,0.025390625,-0.32421875,-0.0031937360763549805,-0.04148244857788086,-0.1034383773803711
565,690000000,imu2_frame,0.1793103278513843,-0.08074931247437175,-0.7542172491850369,0.6264851920775949,-0.005859375,0.025390625,-0.34765625,0.07655394077301025,-0.019115209579467773,-0.09758567810058594
565,715000000,imu2_frame,0.18215516087719955,-0.07989610756680447,-0.7566406421360713,0.6228411097779184,-0.005859375,0.025390625,-0.34765625,0.02997446060180664,0.006891489028930664,-0.07626056671142578
565,741000000,imu2_frame,0.18298631949244523,-0.0809662899808998,-0.7590149972315641,0.6195617005132795,-0.037109375,0.017578125,-0.35546875,0.04292440414428711,-0.011089563369750977,-0.06696224212646484
565,766000000,imu2_frame,0.1848992859033522,-0.07790738698339382,-0.7619157938108733,0.6158141085322723,-0.037109375,0.017578125,-0.35546875,-0.14498627185821533,-0.018812894821166992,-0.06661033630371094
565,790000000,imu2_frame,0.187259571946005,-0.07594815721103108,-0.7644444947468778,0.6122012288308789,-0.037109375,0.017578125,-0.35546875,-0.07163441181182861,0.030495643615722656,-0.13345909118652344
565,816000000,imu2_frame,0.18873017971602965,-0.07234916798960055,-0.7675268398882711,0.6083165846881804,-0.037109375,0.017578125,-0.35546875,-0.028782367706298828,-0.04055142402648926,-0.09401893615722656
565,840000000,imu2_frame,0.19065092261443087,-0.06938462741920487,-0.7702244483812336,0.6046422895398478,-0.029296875,0.025390625,-0.357421875,0.05031919479370117,-0.008875846862792969,-0.08798885345458984
565,866000000,imu2_frame,0.1905402603929987,-0.07079720520298688,-0.7725955169201856,0.601480117825723,0.0,0.021484375,-0.35546875,0.045168399810791016,-0.020343780517578125,-0.08494186401367188
565,891000000,imu2_frame,0.19312295564073428,-0.06860839383900404,-0.7751855013818649,0.5975649343349771,0.0,0.021484375,-0.35546875,-0.027416467666625977,-0.006336688995361328,-0.11060237884521484
565,915000000,imu2_frame,0.19578637209081762,-0.06718624984961162,-0.7774348615693214,0.5939265445754649,-0.013671875,0.029296875,-0.3515625,0.042937517166137695,-0.004923820495605469,-0.0941305160522461
565,940000000,imu2_frame,0.19646360938301544,-0.06885816144372316,-0.7795152534703504,0.5907762464739449,0.021484375,0.015625,-0.34765625,0.046054840087890625,-0.028905153274536133,-0.08448982238769531
565,966000000,imu2_frame,0.1988628462854957,-0.06966681790457811,-0.7816226974268177,0.5870826702582073,0.021484375,0.015625,-0.34765625,0.04742574691772461,0.0597536563873291,-0.14188861846923828
565,991000000,imu2_frame,0.20163227534815883,-0.06965224108521278,-0.7837100400014917,0.5833451500189164,0.021484375,0.015625,-0.34765625,0.06806540489196777,-0.03804135322570801,-0.08118534088134766
566,15000000,imu2_frame,0.20034413764514175,-0.06961240622668814,-0.785888312933938,0.5808578991495286,-0.0078125,0.046875,-0.322265625,0.060721397399902344,-0.015996456146240234,-0.09140682220458984
566,41000000,imu2_frame,0.2000659764524885,-0.07077086193117726,-0.7879146238314552,0.5780619652945237,0.009765625,0.048828125,-0.322265625,0.05508112907409668,-0.02249431610107422,-0.0904073715209961
566,66000000,imu2_frame,0.199687558104185,-0.06772291840597101,-0.7906079064835639,0.574871832382351,0.009765625,0.048828125,-0.322265625,0.020311355590820312,-0.07568073272705078,0.05463695526123047
566,90000000,imu2_frame,0.19869306237222373,-0.0658894884020529,-0.793007182939101,0.5721182133879802,0.037109375,0.029296875,-0.298828125,0.038411617279052734,-0.02856898307800293,0.04210472106933594
566,115000000,imu2_frame,0.2000967795835274,-0.06762864418486898,-0.7945549696754521,0.569271504161291,0.037109375,0.029296875,-0.298828125,0.01145792007446289,0.01210641860961914,0.057579994201660156
566,141000000,imu2_frame,0.19838936678347854,-0.06757757655522625,-0.7966771643098246,0.5669042477891921,0.005859375,0.025390625,-0.27734375,-0.0031175613403320312,0.03825068473815918,0.044152259826660156
566,166000000,imu2_frame,0.19929820887979388,-0.06889532981044492,-0.7981087554829097,0.5644077177795649,-0.015625,0.02734375,-0.27734375,0.005354642868041992,0.015480995178222656,0.05472564697265625
566,191000000,imu2_frame,0.19804569472389646,-0.06626909324841666,-0.8004896357411416,0.5617852375707073,-0.015625,0.02734375,-0.27734375,0.0664827823638916,-0.11409139633178711,-0.04006004333496094
566,216000000,imu2_frame,0.19737038180573493,-0.06314516496267097,-0.8028682671574445,0.5589813647334747,-0.015625,0.02734375,-0.27734375,0.024731159210205078,-0.04991006851196289,-0.010214805603027344
566,241000000,imu2_frame,0.19565626991401128,-0.060805811294446656,-0.8053965817200017,0.5561992660098505,-0.029296875,0.01953125,-0.302734375,0.036370277404785156,0.013164520263671875,-0.02904987335205078
566,266000000,imu2_frame,0.1952725329761215,-0.06219093783429202,-0.8072542457578717,0.5534812623949164,-0.009765625,0.013671875,-0.314453125,0.02565312385559082,0.0036613941192626953,-0.028656005859375
566,290000000,imu2_frame,0.1960043470817958,-0.05895857034671016,-0.8096328433397383,0.5500916668095617,-0.009765625,0.013671875,-0.314453125,-0.028088808059692383,-0.05628776550292969,-0.03461933135986328
566,315000000,imu2_frame,0.1965525472041803,-0.055354278721505695,-0.8121619286098901,0.5465308790282889,-0.025390625,0.01953125,-0.322265625,0.0329136848449707,0.005802154541015625,-0.038466453552246094
566,340000000,imu2_frame,0.19605273993018218,-0.0568021205145484,-0.8140769589396072,0.5437053863946542,-0.009765625,0.001953125,-0.322265625,0.019986391067504883,-0.0031402111053466797,-0.03912830352783203
566,366000000,imu2_frame,0.19608604489637493,-0.058516433626384104,-0.8159196506483892,0.5407413556205555,0.009765625,0.013671875,-0.31640625,0.01274871826171875,-0.02151942253112793,-0.03500938415527344
566,390000000,imu2_frame,0.19851510347850782,-0.056748404062497516,-0.8178178072571842,0.5371642267131422,0.009765625,0.013671875,-0.31640625,0.0033757686614990234,-0.007209300994873047,-0.09447860717773438
566,416000000,imu2_frame,0.20094801310419866,-0.05589825752902722,-0.8194670313174242,0.5338249389252071,-0.04296875,0.017578125,-0.296875,0.06131744384765625,-0.007844686508178711,-0.07735538482666016
566,440000000,imu2_frame,0.19992709022111635,-0.0565647086713753,-0.8211513397001542,0.5315449836441711,-0.046875,0.02734375,-0.29296875,0.047132253646850586,-0.0008413791656494141,-0.08388328552246094
566,465000000,imu2_frame,0.19980663509921365,-0.05745878029321452,-0.8227160621841758,0.529069067477687,-0.0546875,0.03515625,-0.294921875,0.04479503631591797,-0.006021261215209961,-0.08283424377441406
566,491000000,imu2_frame,0.1993553052529133,-0.058007723088421476,-0.8244446130081176,0.5264823324780329,-0.083984375,0.037109375,-0.3046875,0.04153037071228027,-0.0020630359649658203,-0.08511638641357422
566,515000000,imu2_frame,0.19895160365568373,-0.053949052561821954,-0.8267513147977719,0.5234405626340674,-0.083984375,0.037109375,-0.3046875,-0.024302959442138672,-0.2317051887512207,-0.10104560852050781
566,541000000,imu2_frame,0.19850150128717328,-0.04996335966289489,-0.8292466582483828,0.5200488404581096,-0.052734375,0.03125,-0.306640625,0.022199392318725586,-0.15196585655212402,-0.11263751983642578
566,566000000,imu2_frame,0.19799072773380108,-0.04614958052940802,-0.8316294172637134,0.5167808048776736,-0.052734375,0.03125,-0.306640625,0.02579641342163086,-0.10961246490478516,-0.08469867706298828
566,590000000,imu2_frame,0.19627107868007623,-0.0435496141804989,-0.8339217166751688,0.5139607623506184,-0.052734375,0.03125,-0.306640625,0.07436871528625488,-0.04111289978027344,-0.0634469985961914
566,615000000,imu2_frame,0.1956022797465452,-0.03979861381322197,-0.8362739153708908,0.5106875335924507,-0.052734375,0.03125,-0.306640625,0.0775294303894043,-0.00552821159362793,-0.16061973571777344
566,640000000,imu2_frame,0.19526667700071937,-0.039585269509971543,-0.8378822679441068,0.5081901576730504,-0.146484375,0.056640625,-0.3125,0.08223462104797363,0.009606361389160156,-0.16351795196533203
566,666000000,imu2_frame,0.1946766214275374,-0.034327350310703206,-0.8402631602546005,0.5048568783419292,-0.146484375,0.056640625,-0.3125,0.02282404899597168,-0.11780500411987305,-0.13654708862304688
566,691000000,imu2_frame,0.19349807911423014,-0.029483978069390848,-0.8425825597872586,0.5017407880157421,-0.146484375,0.056640625,-0.3125,0.06183576583862305,-0.16852068901062012,-0.14762401580810547
566,716000000,imu2_frame,0.19226849401415352,-0.024719120473138012,-0.8452931131239647,0.49789692125756335,-0.1328125,0.078125,-0.384765625,0.10036182403564453,-0.06484746932983398,-0.16194438934326172
566,741000000,imu2_frame,0.19430203986410854,-0.02051323844634983,-0.847390202590761,0.4937162838172127,-0.1328125,0.078125,-0.384765625,0.028264760971069336,0.038971900939941406,-0.07217693328857422
566,765000000,imu2_frame,0.19519406424878483,-0.01987616544578872,-0.8490640401213567,0.4905043028374085,-0.14453125,0.0703125,-0.373046875,0.056827545166015625,0.05251765251159668,-0.065887451171875
566,791000000,imu2_frame,0.19549964835785166,-0.014357592197080118,-0.85151628961867,0.48630623639051956,-0.14453125,0.0703125,-0.373046875,-0.02697610855102539,-0.03487873077392578,-0.028182029724121094
566,816000000,imu2_frame,0.19747262008449998,-0.010342595030228297,-0.8534082901191105,0.4822778093598954,-0.14453125,0.0703125,-0.373046875,-0.06114768981933594,0.06352686882019043,-0.0149688720703125
566,840000000,imu2_frame,0.19994926647266556,-0.010489519184349518,-0.8548470390415891,0.4786928040676524,0.03515625,0.01171875,-0.330078125,-0.014861345291137695,0.051445960998535156,0.004330635070800781
566,865000000,imu2_frame,0.20171653248093482,-0.011230568852389627,-0.8562655453436552,0.4753878739560493,-0.009765625,0.01953125,-0.32421875,0.01405787467956543,0.03524446487426758,0.01852130889892578
566,891000000,imu2_frame,0.2008837126949569,-0.012450754642663058,-0.8581414044443558,0.4723177348575713,-0.009765625,0.01953125,-0.32421875,0.18831753730773926,0.11227273941040039,-0.06949424743652344
566,916000000,imu2_frame,0.19936883448812448,-0.013041588433372662,-0.8601215200798579,0.4693324573279545,-0.009765625,0.01953125,-0.32421875,0.12687277793884277,0.01419210433959961,-0.12011337280273438
566,940000000,imu2_frame,0.19819516851179284,-0.013542193873792654,-0.861783060767264,0.46676036714600455,-0.05078125,0.03125,-0.306640625,0.10966157913208008,0.026070117950439453,-0.12897491455078125
566,966000000,imu2_frame,0.19719150373733024,-0.009744464604283586,-0.863990373509962,0.4631859138029812,-0.05078125,0.03125,-0.306640625,0.05846858024597168,-0.004628300666809082,-0.09939861297607422
566,991000000,imu2_frame,0.19743684925332491,-0.010702991324402751,-0.8654079187467851,0.46040555025323826,-0.05078125,0.03125,-0.306640625,0.05997610092163086,0.02646458148956299,-0.09321880340576172
567,15000000,imu2_frame,0.19974836447169259,-0.009402053716937883,-0.8666268869211443,0.45713240001355604,-0.05078125,0.03125,-0.306640625,0.0770711898803711,0.0011701583862304688,-0.07578754425048828
567,41000000,imu2_frame,0.19818729352497125,-0.009739360081992854,-0.8683687530403096,0.4544916394100756,-0.0546875,0.029296875,-0.291015625,0.05489039421081543,0.019288301467895508,-0.08779716491699219
567,66000000,imu2_frame,0.1983711842118515,-0.010966779446053709,-0.8696723947397623,0.45188331331282466,-0.025390625,0.041015625,-0.287109375,0.052710533142089844,0.006661176681518555,-0.0858774185180664
567,91000000,imu2_frame,0.2006924446517112,-0.008501303799636284,-0.8709667264667862,0.4484052094714741,-0.025390625,0.041015625,-0.287109375,0.0063076019287109375,0.0024453401565551758,-0.11168098449707031
567,116000000,imu2_frame,0.2029306779739786,-0.006700803607267565,-0.8718134583739715,0.4457752045213526,-0.115234375,0.0546875,-0.25390625,0.06389427185058594,0.02380383014678955,-0.0945577621459961
567,141000000,imu2_frame,0.20103089671027413,-0.003119070485962035,-0.8735666887571775,0.4432359306971712,-0.115234375,0.0546875,-0.25390625,0.06980657577514648,-0.0020319223403930664,-0.07117652893066406
567,166000000,imu2_frame,0.19925896324975126,-0.002213056621575563,-0.8748589989827934,0.4414891842886398,-0.1484375,0.064453125,-0.236328125,0.052506208419799805,0.03553974628448486,-0.08513545989990234
567,191000000,imu2_frame,0.19917718392058345,0.0028074866976020335,-0.8762161677020393,0.43882319318999147,-0.1484375,0.064453125,-0.236328125,-0.052785396575927734,-0.09790575504302979,-0.0036859512329101562
567,216000000,imu2_frame,0.19914066002850878,0.007824533253566041,-0.8775332114120661,0.4361390111783167,-0.1484375,0.064453125,-0.236328125,-0.0056612491607666016,-0.040074944496154785,-0.045897483825683594
567,241000000,imu2_frame,0.19970481353138575,0.012170218454334844,-0.8786507808369339,0.4335235617239443,-0.09375,0.06640625,-0.21484375,0.044803619384765625,0.040134429931640625,-0.03980064392089844
567,266000000,imu2_frame,0.19962423434168444,0.01131463543104446,-0.8794706673739513,0.431918382703695,-0.072265625,0.05078125,-0.205078125,0.03902006149291992,0.032564401626586914,-0.040821075439453125
567,291000000,imu2_frame,0.1997569624116047,0.015346363418145482,-0.880625823819995,0.429371405102019,-0.072265625,0.05078125,-0.205078125,0.000957489013671875,-0.0022335052490234375,0.0013780593872070312
567,316000000,imu2_frame,0.19875943878986493,0.014817393759617405,-0.8816400332655714,0.4277686081020819,-0.072265625,0.05078125,-0.205078125,0.06096029281616211,0.04261147975921631,-0.045764923095703125
567,341000000,imu2_frame,0.1983969463166743,0.013165791828318028,-0.8824379796011397,0.426343201863488,-0.01171875,0.02734375,-0.17578125,0.04362607002258301,0.022914886474609375,-0.049483299255371094
567,366000000,imu2_frame,0.19793202097610302,0.011840118864061906,-0.8832005992395717,0.42501697396746624,-0.044921875,0.025390625,-0.173828125,0.027201414108276367,0.009230613708496094,-0.053732872009277344
567,390000000,imu2_frame,0.19800445702010633,0.015208935364730626,-0.8841820815533034,0.42282971743399483,-0.044921875,0.025390625,-0.173828125,-0.05760765075683594,-0.15491974353790283,-0.05139350891113281
567,415000000,imu2_frame,0.1998277180432458,0.017746304605119743,-0.8847873368505336,0.42060114160975803,-0.044921875,0.025390625,-0.173828125,-0.0035462379455566406,-0.003934144973754883,-0.1137075424194336
567,441000000,imu2_frame,0.2027888353817851,0.017556039701906983,-0.8851673959257786,0.4183863703617271,0.095703125,0.01171875,-0.1484375,0.046843767166137695,-0.022658348083496094,-0.09053611755371094
567,466000000,imu2_frame,0.2007542488138423,0.018693475681640353,-0.886409606714595,0.4166848865440245,0.001953125,0.01171875,-0.154296875,0.025235891342163086,0.02077770233154297,-0.10577106475830078
567,490000000,imu2_frame,0.2007049446414672,0.016764982480531907,-0.887016337055669,0.41549786805137406,0.001953125,0.01171875,-0.154296875,0.010650157928466797,-0.007374286651611328,-0.029372215270996094
567,516000000,imu2_frame,0.2006437606178669,0.019532547365279592,-0.8882008923381,0.4128676976567024,0.017578125,0.005859375,-0.18359375,0.03571772575378418,0.051873207092285156,-0.027886390686035156
567,541000000,imu2_frame,0.19986179797553003,0.017589466498876362,-0.8891553572121053,0.4112768205470456,0.017578125,0.005859375,-0.18359375,0.04870009422302246,0.030993342399597168,-0.035419464111328125
567,566000000,imu2_frame,0.19945772093547454,0.015408188408322953,-0.8901174049390885,0.40947553127592723,0.0390625,0.013671875,-0.197265625,0.027348041534423828,0.0036432743072509766,-0.03998088836669922
567,591000000,imu2_frame,0.20196618460382845,0.016208558362941192,-0.8907205632513189,0.4068953441778617,0.0390625,0.013671875,-0.197265625,0.004717826843261719,0.007878303527832031,-0.01980876922607422
567,616000000,imu2_frame,0.20187783866686831,0.01875776206794221,-0.8919385378400144,0.4041523590593199,0.0390625,0.013671875,-0.197265625,-0.011785745620727539,-0.16624009609222412,-0.05391502380371094
567,640000000,imu2_frame,0.20158161721823742,0.021073710414445328,-0.8929682468225542,0.4019060344106594,0.037109375,0.00390625,-0.162109375,0.004477977752685547,-0.11424660682678223,-0.05444812774658203
567,666000000,imu2_frame,0.2012639474273187,0.023670438653914317,-0.8940279652331581,0.39955791968244586,0.03125,0.015625,-0.15625,0.022417306900024414,-0.05669713020324707,-0.05467796325683594
567,691000000,imu2_frame,0.20355524643741443,0.022586308922586795,-0.8943024182501964,0.3978420603818903,0.03125,0.015625,-0.15625,0.015243291854858398,0.030603885650634766,-0.07659435272216797
567,716000000,imu2_frame,0.20471578157077444,0.02496004192316563,-0.8950103753984986,0.395505844472745,0.03125,0.015625,-0.15625,0.055690765380859375,-0.005359172821044922,-0.10809326171875
567,741000000,imu2_frame,0.20419580200488693,0.022368210488389155,-0.8953691792965539,0.3951174133962505,0.060546875,0.015625,-0.064453125,0.02784109115600586,-0.0449826717376709,-0.11464309692382812
567,766000000,imu2_frame,0.20481278445207124,0.024707957139386696,-0.8956089448669723,0.3941140165653291,0.021484375,0.013671875,-0.0390625,0.057168006896972656,-0.004659414291381836,-0.10756111145019531
567,790000000,imu2_frame,0.20506884118830807,0.022290839618780447,-0.8956162440591589,0.39410840161069854,0.021484375,0.013671875,-0.0390625,0.12118840217590332,0.10341978073120117,-0.1467914581298828
567,816000000,imu2_frame,0.20537355786211534,0.019753022363269604,-0.895511455092736,0.3943231588890812,0.015625,0.025390625,-0.021484375,0.10663580894470215,0.05574023723602295,-0.14643192291259766
567,840000000,imu2_frame,0.20552696269196438,0.01723664573221994,-0.8954656608079692,0.3944652278265668,0.033203125,0.0234375,-0.0234375,0.08978986740112305,0.00992274284362793,-0.1470184326171875
567,865000000,imu2_frame,0.20514289428111165,0.015032868411975122,-0.8954462155155649,0.39479929193468605,0.005859375,0.02734375,-0.013671875,0.06609964370727539,-0.027037382125854492,-0.1514911651611328
567,890000000,imu2_frame,0.20703402343592042,0.016915849838252114,-0.8952578707664556,0.3941625451446351,0.005859375,0.02734375,-0.013671875,0.03461098670959473,-0.006150007247924805,-0.05305194854736328
567,915000000,imu2_frame,0.2055883691360728,0.015693642739400025,-0.8954472439009987,0.39453943458625723,0.013671875,0.033203125,0.00390625,0.0008068084716796875,-0.017868638038635254,-0.06548404693603516
567,940000000,imu2_frame,0.20419290704647333,0.01714231315319653,-0.8958095083700448,0.3943814429273857,0.013671875,0.033203125,0.00390625,0.028005361557006836,-0.016152501106262207,-0.036670684814453125
567,966000000,imu2_frame,0.2022170122068319,0.018309895044553166,-0.8962408708149816,0.3943669981101397,-0.021484375,0.03125,-0.005859375,0.004111051559448242,0.019734859466552734,-0.05155658721923828
567,991000000,imu2_frame,0.20362746020763353,0.016584646485024696,-0.8958128707616513,0.3946898877956268,-0.021484375,0.03125,-0.005859375,0.01389622688293457,-0.022777557373046875,-0.0063934326171875
568,16000000,imu2_frame,0.20350852915419249,0.019413662897400832,-0.8959906289861719,0.3942184432815989,-0.021484375,0.03125,-0.005859375,-0.000980377197265625,-0.044600725173950195,-0.00925445556640625
568,41000000,imu2_frame,0.2031002598130701,0.021490955501460917,-0.8963142117889458,0.3935851331550247,0.03125,0.01171875,-0.01171875,0.008897542953491211,-0.002423524856567383,-0.010837554931640625
568,65000000,imu2_frame,0.20146581335966682,0.020841034495150755,-0.8966056888552764,0.39379616052071315,0.029296875,0.017578125,0.0078125,-0.02348470687866211,-0.0019544363021850586,-0.02429676055908203
568,90000000,imu2_frame,0.20407780613379065,0.02080536268342601,-0.8960947822374218,0.39361596407424526,0.029296875,0.017578125,0.0078125,-0.05826306343078613,0.012996196746826172,-0.07394218444824219
568,115000000,imu2_frame,0.2058847463757888,0.022407732798818598,-0.8958443121973896,0.39315688093200124,0.029296875,0.017578125,0.0078125,0.023576974868774414,-0.006260275840759277,-0.022951126098632812
568,141000000,imu2_frame,0.20374199876246596,0.021803948273235344,-0.896223654542794,0.3934424313898184,0.013671875,0.00390625,0.0078125,-0.016916990280151367,-0.0013530254364013672,-0.04062175750732422
568,165000000,imu2_frame,0.20605076155622265,0.022273793029230333,-0.8957805177307684,0.393222870469392,0.021484375,0.009765625,0.009765625,0.02522110939025879,-0.010173439979553223,-0.021732330322265625
568,191000000,imu2_frame,0.20724432401871423,0.019708251062968675,-0.895362085015456,0.39368529527890755,0.021484375,0.009765625,0.009765625,0.02489638328552246,0.04697287082672119,-0.053254127502441406
568,215000000,imu2_frame,0.20816638906865595,0.017245760060073438,-0.8949770632918725,0.39418954121529276,0.021484375,0.001953125,0.015625,0.02068948745727539,-0.00540316104888916,-0.047545433044433594
