timestamp_sec,timestamp_nsec,frame_id,orientation_x,orientation_y,orientation_z,orientation_w,angular_velocity_x,angular_velocity_y,angular_velocity_z,linear_acceleration_x,linear_acceleration_y,linear_acceleration_z
604,471000000,imu2_frame,-0.009559910746210534,-0.028207940430269102,-0.14384999241310514,0.989151201731038,0.0,0.0,0.0,-0.037128448486328125,0.027400106191635132,-0.3244667053222656
604,491000000,imu2_frame,-0.010745183580243534,-0.02981381631995792,-0.1438236501798042,0.9890957663619959,0.0,0.0,0.0,-0.03240996599197388,0.01064930111169815,-0.3260812759399414
604,511000000,imu2_frame,-0.009559384044345334,-0.028207283492691675,-0.14385000436503412,0.9891512238170842,0.0,0.0,0.0,0.001948237419128418,-0.007764473557472229,-0.3283729553222656
604,531000000,imu2_frame,-0.010744701640543924,-0.02981313391092098,-0.1438236608544733,0.9890957906145807,0.0,0.0,0.0,-0.032395362854003906,0.010641880333423615,-0.3260822296142578
604,551000000,imu2_frame,-0.009298058283153388,-0.031193953382300476,-0.14387707482878165,0.9890600945965108,0.0,0.0,0.0,-0.01595085859298706,0.0139077827334404,-0.36406517028808594
604,571000000,imu2_frame,-0.008425290322565553,-0.02939979368559434,-0.1438964561812117,0.9891200516179589,0.0,0.0,0.0,-0.017909884452819824,0.0020789578557014465,-0.32742977142333984
604,591000000,imu2_frame,-0.010422942798900662,-0.02933241186040483,-0.14383532132942758,0.9891119108654605,0.0,0.0,0.0,-0.02220839262008667,0.005769111216068268,-0.3619270324707031
604,611000000,imu2_frame,-0.008424549250451961,-0.029400456006553766,-0.14389648262460186,0.9891200343966352,0.0,0.0,0.0,-0.017920494079589844,-0.033093541860580444,-0.36258602142333984
604,631000000,imu2_frame,-0.010422182357703888,-0.0293324194799463,-0.14383534463214356,0.989111915263843,0.0,0.0,0.0,-0.02220630645751953,0.005754359066486359,-0.3619270324707031
604,651000000,imu2_frame,-0.008442967183042025,-0.029612630316852444,-0.1438972133909693,0.9891134416279951,0.0,0.0,0.0,-0.022070646286010742,0.001820489764213562,-0.3623342514038086
604,671000000,imu2_frame,-0.01040050117622148,-0.02920782233692337,-0.14383549658515704,0.9891158084934845,0.0,0.0,0.0,-0.019738852977752686,0.005686245858669281,-0.3269224166870117
604,691000000,imu2_frame,-0.008483084797007724,-0.0296266450810497,-0.14389820395319503,0.9891125345847219,-0.00390625,-0.001953125,0.0,-0.02245420217514038,-0.032600268721580505,-0.3271484375
604,711000000,imu2_frame,-0.008348828701949864,-0.027649854878292454,-0.14389605774248818,0.9891712223627847,-0.00390625,-0.001953125,0.0,0.016111552715301514,0.0055313557386398315,-0.3294057846069336
604,731000000,imu2_frame,-0.009918304825118851,-0.028949980051349487,-0.1438585210085529,0.9891249930204242,-0.00390625,-0.001953125,0.0,-0.013407230377197266,-0.0029230937361717224,-0.3625631332397461
604,751000000,imu2_frame,-0.008088792395951932,-0.029667737457895773,-0.1439194559265963,0.9891115139343475,-0.00390625,-0.001953125,0.0,-0.022142231464385986,-0.0051954686641693115,-0.3272285461425781
604,771000000,imu2_frame,-0.009932956961452102,-0.02885914240327648,-0.14386086298194786,0.9891271598575376,-0.001953125,-0.001953125,0.0,-0.011694133281707764,0.032771036028862,-0.32750415802001953
604,791000000,imu2_frame,-0.008121858563272926,-0.02967254200229091,-0.14392047471388072,0.9891109506130906,-0.001953125,-0.001953125,0.0,-0.02232801914215088,-0.0045703500509262085,-0.3272123336791992
604,811000000,imu2_frame,-0.009794203000623653,-0.030813276024315377,-0.1438744249418225,0.9890676243088193,-0.001953125,-0.001953125,0.0,-0.009990334510803223,-0.01058274507522583,-0.36434078216552734
604,831000000,imu2_frame,-0.008357329644545648,-0.029463106055865714,-0.14391393720435064,0.9891162010103237,-0.001953125,-0.001953125,0.0,-0.018943428993225098,0.0005761757493019104,-0.3625345230102539
604,851000000,imu2_frame,-0.009835348037322523,-0.030863424822691016,-0.14387657998682074,0.9890653389278661,-0.00390625,-0.001953125,0.0,-0.050137102603912354,0.025226205587387085,-0.36035823822021484
604,871000000,imu2_frame,-0.010514276105375493,-0.028985126269768496,-0.14384690894510002,0.9891194969466759,-0.00390625,-0.001953125,0.0,-0.015757739543914795,0.008506499230861664,-0.3622856140136719
604,891000000,imu2_frame,-0.008641931326664543,-0.029587795871710076,-0.14390904746660654,0.9891107447680735,-0.00390625,-0.001953125,0.0,-0.022150516510009766,0.00572986900806427,-0.36229705810546875
604,911000000,imu2_frame,-0.010638866918521717,-0.029177920280467274,-0.14384819883251002,0.9891123086745203,-0.00390625,-0.001953125,0.0,-0.019831538200378418,0.010371007025241852,-0.3268585205078125
604,931000000,imu2_frame,-0.008660224831327236,-0.029469094353923458,-0.14390994451910522,0.9891139979053669,0.0,0.0,0.0,-0.019909143447875977,-0.02873872220516205,-0.3272714614868164
604,951000000,imu2_frame,-0.0066786665206979,-0.02973402827548776,-0.14397108885250265,0.989112535837375,0.0,0.0,0.0,-0.019464313983917236,-0.032675664871931076,-0.3275585174560547
604,971000000,imu2_frame,-0.008661491191184235,-0.02945684569287715,-0.14390987667974622,0.989114361540763,0.0,0.0,0.0,-0.01967597007751465,-0.028679706156253815,-0.3272848129272461
604,991000000,imu2_frame,-0.010642030326179311,-0.02917986260023748,-0.14384815759162575,0.9891122233430658,0.0,0.0,0.0,-0.019877910614013672,0.010426700115203857,-0.3268556594848633
605,11000000,imu2_frame,-0.008641762614581825,-0.029459718245649847,-0.14390931383100514,0.989114530442501,0.001953125,0.0,0.0,-0.019676148891448975,-0.02906884253025055,-0.3272886276245117
605,31000000,imu2_frame,-0.01060339273502203,-0.02918535436983823,-0.14384701710403475,0.9891126421308574,0.001953125,0.0,0.0,-0.019875407218933105,0.009664960205554962,-0.32686519622802734
605,51000000,imu2_frame,-0.008620362606838895,-0.029579633914483424,-0.14390835752757203,0.9891112774808143,0.001953125,0.0,0.0,-0.02193242311477661,0.005336344242095947,-0.36231327056884766
605,71000000,imu2_frame,-0.010559995291433798,-0.029172977774571562,-0.1438459456391105,0.9891136273403573,0.001953125,0.0,0.0,-0.019514501094818115,0.008861511945724487,-0.32689666748046875
605,91000000,imu2_frame,-0.008622428012719513,-0.0295890021138334,-0.14390834859753315,0.9891109805744773,-0.001953125,0.0,0.0,-0.022119104862213135,-0.029806405305862427,-0.3271455764770508
605,111000000,imu2_frame,-0.010622047345473335,-0.0292947749919217,-0.14384691458923968,0.9891092221951625,-0.001953125,0.0,0.0,-0.022041499614715576,0.00971733033657074,-0.36188793182373047
605,131000000,imu2_frame,-0.008660753282637431,-0.029583170561969192,-0.14390951244590017,0.9891106508372367,-0.001953125,0.0,0.0,-0.022114098072052002,-0.029049746692180634,-0.36229610443115234
605,151000000,imu2_frame,-0.006872163360836665,-0.028729337364093506,-0.14396134353992893,0.9891423204531998,-0.001953125,0.0,0.0,-0.0005995631217956543,-0.026097610592842102,-0.3286561965942383
605,171000000,imu2_frame,-0.008660695483096673,-0.029614522799460103,-0.14390953358491948,0.9891097100607598,0.001953125,-0.001953125,0.0,-0.02271932363510132,0.0060169994831085205,-0.3271036148071289
605,191000000,imu2_frame,-0.006650001075720807,-0.029503054541999345,-0.14396887522330695,0.9891199675597094,0.001953125,-0.001953125,0.0,-0.014922142028808594,-0.03257761150598526,-0.3629903793334961
605,211000000,imu2_frame,-0.008632926025209339,-0.029434266880909863,-0.1439073562289762,0.9891156501363293,0.001953125,-0.001953125,0.0,-0.019159317016601562,-0.029166825115680695,-0.36247730255126953
605,231000000,imu2_frame,-0.010613979139295652,-0.02934061095886553,-0.1438451349456119,0.9891082090185429,0.001953125,-0.001953125,0.0,-0.022903919219970703,0.009433209896087646,-0.36183929443359375
605,251000000,imu2_frame,-0.008596143838281554,-0.029318071135894335,-0.14390497609528258,0.9891197677081368,0.001953125,-0.001953125,0.0,-0.0168115496635437,-0.029549002647399902,-0.3626232147216797
605,271000000,imu2_frame,-0.007426368790047225,-0.030974188860734345,-0.14394584809577912,0.9890728191023149,0.001953125,-0.001953125,0.0,-0.04551827907562256,-0.021699924021959305,-0.3258810043334961
605,291000000,imu2_frame,-0.00856421146942053,-0.02936217686839573,-0.14390345979119387,0.9891189570074876,0.001953125,-0.001953125,0.0,-0.017573833465576172,0.004866503179073334,-0.3274269104003906
605,311000000,imu2_frame,-0.007401500971180094,-0.031021216042331268,-0.14394411350476152,0.9890717841117281,0.001953125,-0.001953125,0.0,-0.04635655879974365,-0.02231212705373764,-0.32583141326904297
605,331000000,imu2_frame,-0.008549014575942364,-0.029383982249385165,-0.14390267778498206,0.9891185547057844,0.0,0.0,0.0,-0.01795220375061035,0.004511713981628418,-0.3274068832397461
605,351000000,imu2_frame,-0.01054301126861279,-0.02920538536542971,-0.1438411694327572,0.9891135467453995,0.0,0.0,0.0,-0.0200921893119812,0.008444711565971375,-0.32686710357666016
605,371000000,imu2_frame,-0.008560051149066307,-0.029482037076219825,-0.14390295304895992,0.9891155014041336,0.0,0.0,0.0,-0.019877254962921143,0.00444861501455307,-0.32729053497314453
605,391000000,imu2_frame,-0.010541082107361873,-0.02919261093741497,-0.143841174134201,0.9891139437286065,0.0,0.0,0.0,-0.0198400616645813,0.0084434375166893,-0.32688236236572266
605,411000000,imu2_frame,-0.00856071265581472,-0.029481986484924918,-0.14390293280024213,0.9891155001329299,0.0,0.0,0.0,-0.019878029823303223,-0.030694715678691864,-0.3272895812988281
605,431000000,imu2_frame,-0.007707413534150656,-0.031291449379532287,-0.14393625523746784,0.9890620786384222,0.0,0.0,0.0,-0.05243462324142456,-0.017154790461063385,-0.3605680465698242
605,451000000,imu2_frame,-0.009313973750758877,-0.03010206552248308,-0.14388069581592594,0.9890932518806179,0.0,0.0,0.0,-0.03396880626678467,-0.01786600798368454,-0.36146068572998047
605,471000000,imu2_frame,-0.010920596076786039,-0.02891243318544855,-0.14382455715653528,0.9891204722112222,0.0,0.0,0.0,-0.015490412712097168,0.01657968759536743,-0.3621978759765625
605,491000000,imu2_frame,-0.009312473206783235,-0.03010317901378568,-0.14388074800388861,0.9890932245293558,0.0,0.0,0.0,-0.033985793590545654,-0.017898239195346832,-0.36145973205566406
605,511000000,imu2_frame,-0.007692683337325627,-0.028930435204911478,-0.14392518092554246,0.9891356807018317,0.0,0.0,0.0,-0.006787538528442383,-0.010779343545436859,-0.32819557189941406
605,531000000,imu2_frame,-0.00922646292174216,-0.030208549204150368,-0.1438836710967235,0.9890903927996995,0.0,0.0,0.0,0.0032827258110046387,-0.019859783351421356,-0.36527347564697266
605,551000000,imu2_frame,-0.007774111398010994,-0.028834517692402084,-0.14392217762025508,0.9891382818243675,0.0,0.0,0.0,-0.0051631927490234375,-0.008933007717132568,-0.3282794952392578
605,571000000,imu2_frame,-0.00922433559207428,-0.030206483562117088,-0.14388372774307648,0.9890904674874045,0.0,0.0,0.0,-0.035733819007873535,0.015261128544807434,-0.3262138366699219
605,591000000,imu2_frame,-0.010815856509169535,-0.031415384730010605,-0.1438395093736644,0.989043116549214,0.0,0.0,0.0,-0.02448183298110962,0.007492236793041229,-0.32022857666015625
605,611000000,imu2_frame,-0.009271784910122467,-0.03015013887415745,-0.14388183007063798,0.9890920190285499,0.0,0.0,0.0,-0.034779250621795654,0.01633850485086441,-0.326263427734375
605,633000000,imu2_frame,-0.011027124641760713,-0.028822949121218022,-0.14382031823343439,0.9891225182904919,0.0,0.0,0.0,-0.014059960842132568,0.01889374852180481,-0.36225318908691406
605,651000000,imu2_frame,-0.00959116493008247,-0.02990871482458241,-0.14387069042611228,0.9890979237513036,0.0,0.0,0.0,-0.03101062774658203,-0.011956363916397095,-0.3615856170654297
605,671000000,imu2_frame,-0.011042713972519096,-0.028533874515399314,-0.14381828063025867,0.9891310219732353,0.0,0.0,0.0,-0.008518993854522705,0.020010843873023987,-0.32741451263427734
605,691000000,imu2_frame,-0.009590392952288185,-0.029909401635474165,-0.14387071785375977,0.9890979064789656,0.0,0.0,0.0,-0.03102177381515503,-0.011973239481449127,-0.3264284133911133
605,711000000,imu2_frame,-0.011184460074036123,-0.028703893049520972,-0.14381476993012446,0.9891250205745477,0.0,0.0,0.0,-0.012200653553009033,0.02227415144443512,-0.3623189926147461
605,731000000,imu2_frame,-0.00958767335830635,-0.02991141775892175,-0.14387081252970152,0.9890978581056927,0.0,0.0,0.0,-0.03105306625366211,-0.01203155517578125,-0.36158275604248047
605,751000000,imu2_frame,-0.00867733684631209,-0.03169247647040614,-0.14390797485565876,0.9890453910379297,0.0,0.0,0.0,-0.02383899688720703,0.0004834607243537903,-0.32070064544677734
605,771000000,imu2_frame,-0.009781195038447488,-0.030026885121366986,-0.14386496349418534,0.9890933154522604,0.0,0.0,0.0,-0.03382641077041626,-0.008612051606178284,-0.3262186050415039
605,791000000,imu2_frame,-0.007928625347782573,-0.029273604916429212,-0.14391832222571074,0.9891247188717042,0.0,0.0,0.0,-0.014078915119171143,-0.007180690765380859,-0.32773303985595703
605,811000000,imu2_frame,-0.00978027998125804,-0.030026535786781567,-0.14386499006703468,0.9890933312408619,0.0,0.0,0.0,-0.03381645679473877,0.026527322828769684,-0.3262195587158203
605,831000000,imu2_frame,-0.010885383210345231,-0.028362473039710456,-0.14382137469892833,0.9891372456515558,0.0,0.0,0.0,-0.004766941070556641,0.017450347542762756,-0.32767200469970703
605,851000000,imu2_frame,-0.009111213521032125,-0.029287127702292196,-0.1438798754647095,0.9891197255011062,0.0,0.0,0.0,-0.01765739917755127,0.015667200088500977,-0.36248016357421875
605,871000000,imu2_frame,-0.011108017638466664,-0.029185689667704125,-0.1438185812138284,0.9891112289123026,0.0,0.0,0.0,-0.02129364013671875,0.019436493515968323,-0.32665061950683594
605,891000000,imu2_frame,-0.009125584846941629,-0.029286480513489355,-0.14407361549899958,0.9890914108804003,-0.001953125,0.0,-0.01953125,-0.017703652381896973,-0.019325338304042816,-0.3273191452026367
605,911000000,imu2_frame,-0.008876744769363041,-0.03126448253224086,-0.14428453322598384,0.9890023806877569,-0.001953125,0.0,-0.01953125,-0.016164720058441162,0.005304992198944092,-0.36412811279296875
605,931000000,imu2_frame,-0.008157505949416567,-0.03312393281147074,-0.14450955837926777,0.9889151873183136,-0.001953125,0.0,-0.01953125,-0.05006283521652222,-0.014003373682498932,-0.3190584182739258
605,951000000,imu2_frame,-0.008351828021128022,-0.03113280101921186,-0.14469038468827045,0.9889518129050393,-0.001953125,0.0,-0.01953125,-0.05123746395111084,-0.004726573824882507,-0.32540321350097656
605,971000000,imu2_frame,-0.008526763340187614,-0.029163605500296477,-0.1446962486948032,0.989009491377517,0.0,-0.001953125,-0.001953125,-0.013699054718017578,0.004230871796607971,-0.3276662826538086
605,991000000,imu2_frame,-0.008769508300222712,-0.031163958440134233,-0.1447162157143087,0.9889434363642057,0.0,-0.001953125,-0.001953125,-0.013957023620605469,0.003242284059524536,-0.3642873764038086
606,11000000,imu2_frame,-0.008889834514308208,-0.033177450681736165,-0.1447395773824511,0.9888734410164522,0.0,-0.001953125,-0.001953125,-0.05317878723144531,-0.0001547485589981079,-0.31874561309814453
606,31000000,imu2_frame,-0.008773495313003372,-0.031204979846931113,-0.1447545277375569,0.9889365003437897,0.0,-0.001953125,-0.001953125,-0.01476442813873291,0.003178894519805908,-0.32126808166503906
606,51000000,imu2_frame,-0.008870049114800542,-0.03319967314076957,-0.1447581960041627,0.9888701475025259,0.001953125,0.0,0.0,-0.05355352163314819,-0.0006127208471298218,-0.3187227249145508
606,71000000,imu2_frame,-0.008651143247471082,-0.03121620630666794,-0.1447561897113165,0.9889369806638807,0.001953125,0.0,0.0,-0.05369830131530762,0.0007809922099113464,-0.32520198822021484
606,91000000,imu2_frame,-0.00948113339305362,-0.03302538947075345,-0.14473528112072723,0.9888736674412927,0.001953125,0.0,0.0,-0.05191171169281006,0.011707872152328491,-0.3187294006347656
606,111000000,imu2_frame,-0.008927006053404933,-0.03110344970384416,-0.1447437109166784,0.9889399082499967,0.001953125,0.0,0.0,-0.052298903465270996,0.00644085556268692,-0.3604011535644531
606,131000000,imu2_frame,-0.008379998262194092,-0.02917999534424988,-0.14469226979830263,0.9890108445115506,0.00390625,0.0,0.005859375,-0.01360100507736206,0.0013497024774551392,-0.3628530502319336
606,151000000,imu2_frame,-0.009813164407853492,-0.03053578197926165,-0.14459415108486331,0.988971081121823,0.00390625,0.0,0.005859375,-0.004759013652801514,-0.009883895516395569,-0.3216972351074219
606,171000000,imu2_frame,-0.010614653148765342,-0.0287269021775216,-0.14449858224995715,0.9890309671378176,0.00390625,0.0,0.005859375,-0.011132955551147461,0.01078902930021286,-0.3625354766845703
606,191000000,imu2_frame,-0.010621332281929895,-0.03072831844826558,-0.14445060177003236,0.9889777456516271,0.00390625,0.0,0.005859375,-0.010739505290985107,0.005282700061798096,-0.36411285400390625
606,211000000,imu2_frame,-0.010770591500022565,-0.03271888259678743,-0.14445762999371548,0.988911250930515,0.0,0.0,0.0,-0.04960078001022339,0.0025290697813034058,-0.36158180236816406
606,231000000,imu2_frame,-0.01062134058614493,-0.0307284035221938,-0.14445060202381635,0.9889777428820568,0.0,0.0,0.0,-0.010742008686065674,0.005282759666442871,-0.36411285400390625
606,251000000,imu2_frame,-0.00886205566524813,-0.02978214178873075,-0.1445007903468855,0.9890166882257283,0.0,0.0,0.0,-0.026575446128845215,0.00907839834690094,-0.3619956970214844
606,271000000,imu2_frame,-0.010776007537123935,-0.029205576342262025,-0.14443904313385023,0.9890239000098299,0.0,0.0,0.0,-0.02082592248916626,0.012588858604431152,-0.3619260787963867
606,291000000,imu2_frame,-0.008841600754719264,-0.029785362563479162,-0.14448095305135594,0.98901967244258,0.001953125,0.0,0.001953125,-0.026577889919281006,-0.026470355689525604,-0.36199951171875
606,311000000,imu2_frame,-0.010691402202467169,-0.029077864158967584,-0.14440012697238577,0.9890342638479501,0.001953125,0.0,0.001953125,-0.0181158185005188,0.011338070034980774,-0.3269510269165039
606,331000000,imu2_frame,-0.010608236385043265,-0.031078164356558788,-0.14439465644219832,0.988975124162365,0.001953125,0.0,0.001953125,-0.017452359199523926,0.004075109958648682,-0.3207273483276367
606,351000000,imu2_frame,-0.008990940278958472,-0.029883155300128406,-0.14441887864154915,0.9890244423239125,0.001953125,0.0,0.001953125,-0.02888244390487671,0.011333927512168884,-0.3266773223876953
606,371000000,imu2_frame,-0.007402460702902957,-0.02867558372979506,-0.14440284648824755,0.9890756959906503,0.001953125,-0.001953125,0.005859375,-0.0010790228843688965,-0.01595018059015274,-0.3285684585571289
606,391000000,imu2_frame,-0.008985021458743447,-0.02989886317708771,-0.14430067489915432,0.9890412744641914,0.001953125,-0.001953125,0.005859375,-0.029157698154449463,0.011247113347053528,-0.32666015625
606,411000000,imu2_frame,-0.008716577854576964,-0.03190016542780109,-0.14425857474707388,0.9889872922986054,0.001953125,-0.001953125,0.005859375,-0.027988135814666748,0.00042936205863952637,-0.32042884826660156
606,431000000,imu2_frame,-0.009728905073899435,-0.03020918433729028,-0.14415892867015956,0.9890454776563162,0.001953125,-0.001953125,0.005859375,-0.037231504917144775,-0.010318413376808167,-0.32602405548095703
606,451000000,imu2_frame,-0.010756545849726755,-0.028515250396616218,-0.14423312836255242,0.9890743055498675,0.0,-0.001953125,-0.01171875,-0.007410109043121338,0.014287039637565613,-0.3275566101074219
606,471000000,imu2_frame,-0.009654964555112713,-0.03020665742913109,-0.14439222759374812,0.9890122466971345,0.0,-0.001953125,-0.01171875,0.0020642876625061035,0.023271366953849792,-0.32214927673339844
606,491000000,imu2_frame,-0.011011768544725688,-0.03169269424714745,-0.14447275118625497,0.9889398051699347,0.0,-0.001953125,-0.01171875,-0.030466139316558838,0.010085567831993103,-0.31980228424072266
606,511000000,imu2_frame,-0.009016210558805882,-0.031555473174811666,-0.14465290920151863,0.9889380647540117,0.0,-0.001953125,-0.01171875,-0.022209346294403076,0.006941959261894226,-0.3207530975341797
606,531000000,imu2_frame,-0.007025050666365296,-0.03123224647028224,-0.1448496509225528,0.9889356774184908,0.001953125,-0.001953125,-0.013671875,-0.010356545448303223,-0.030755508691072464,-0.3217744827270508
606,551000000,imu2_frame,-0.009006367576553228,-0.03126217886839939,-0.14491989705130415,0.9889083804651044,0.001953125,-0.001953125,-0.013671875,-0.016540348529815674,-0.02774369716644287,-0.32111644744873047
606,571000000,imu2_frame,-0.008196576572532296,-0.03312161566369179,-0.14508749201067206,0.988830316267847,0.001953125,-0.001953125,-0.013671875,-0.05016601085662842,-0.013629354536533356,-0.3620176315307617
606,591000000,imu2_frame,-0.00975925604146245,-0.03192634749333877,-0.14516376263729336,0.9888442482384348,0.001953125,-0.001953125,-0.013671875,-0.03151857852935791,-0.015235885977745056,-0.3200206756591797
606,611000000,imu2_frame,-0.011377188237641457,-0.030694953395550204,-0.14516427826975908,0.9888658714599621,-0.00390625,0.0,-0.005859375,-0.012320756912231445,0.019535884261131287,-0.3208589553833008
606,631000000,imu2_frame,-0.009542950514358856,-0.03139884686895553,-0.14528790609910225,0.9888450176099988,-0.00390625,0.0,-0.005859375,-0.020732104778289795,0.017160087823867798,-0.3637237548828125
606,651000000,imu2_frame,-0.007602424247326111,-0.03169225936164327,-0.14541245292575267,0.9888341733456796,-0.00390625,0.0,-0.005859375,-0.02090442180633545,-0.02126060053706169,-0.3210439682006836
606,671000000,imu2_frame,-0.0096370573594195,-0.03162309977040273,-0.14540625358197184,0.9888195629666809,-0.00390625,0.0,-0.005859375,-0.025340497493743896,0.01826424151659012,-0.36341190338134766
606,691000000,imu2_frame,-0.007639848596730949,-0.03169614827932352,-0.1454716450310006,0.9888250539856122,0.0,0.0,0.0,-0.021089136600494385,-0.02058630809187889,-0.3639955520629883
606,711000000,imu2_frame,-0.009616182246940769,-0.03139527753867991,-0.1454062603000139,0.9888270248394446,0.0,0.0,0.0,-0.020882248878479004,-0.016646534204483032,-0.32073211669921875
606,731000000,imu2_frame,-0.011595428731426235,-0.031093847868361106,-0.1453401949784835,0.9888250332495078,0.0,0.0,0.0,-0.020665466785430908,0.022506266832351685,-0.3202800750732422
606,751000000,imu2_frame,-0.00961951001441856,-0.031394761263610155,-0.14540614965788892,0.9888270251332895,0.0,0.0,0.0,-0.020881831645965576,-0.016580671072006226,-0.32073116302490234
606,771000000,imu2_frame,-0.011610661374553612,-0.031092760708597726,-0.1455724448404213,0.9887907241055338,-0.001953125,0.0,-0.0234375,-0.020719468593597412,0.022654861211776733,-0.32027339935302734
606,791000000,imu2_frame,-0.009645915555186475,-0.031388251959457436,-0.14587075636071836,0.988758543017851,-0.001953125,0.0,-0.0234375,-0.020876765251159668,-0.01634974032640457,-0.32072925567626953
606,811000000,imu2_frame,-0.011479892753875504,-0.030562718982987746,-0.14603954582301942,0.9887398967001043,-0.001953125,0.0,-0.0234375,-0.04923975467681885,-0.09584233164787292,-0.3209714889526367
606,831000000,imu2_frame,-0.01073030446481845,-0.02871583644412835,-0.1462832030366848,0.9887676601774223,-0.001953125,0.0,-0.0234375,-0.050534844398498535,0.011999204754829407,-0.3234376907348633
606,851000000,imu2_frame,-0.009921384415136297,-0.026948541067375414,-0.14805081174766868,0.9885627442942017,0.0,-0.005859375,-0.177734375,-0.01429903507232666,0.00044727325439453125,-0.3256864547729492
606,871000000,imu2_frame,-0.011864602211041582,-0.02676802244381316,-0.1497494328002664,0.9882903478051477,0.0,-0.005859375,-0.177734375,0.022377312183380127,-1.9546199440956116,-0.28989219665527344
606,891000000,imu2_frame,-0.009841546265435118,-0.027096551119651157,-0.15156274947125975,0.9880271523886566,0.0,-0.005859375,-0.177734375,-0.05638211965560913,1.4105754420161247,-0.3294677734375
606,911000000,imu2_frame,-0.00781438904137109,-0.026964232594166696,-0.15337281626597193,0.987769530161344,0.0,-0.005859375,-0.177734375,-0.16124290227890015,0.530979573726654,-0.3693695068359375
606,931000000,imu2_frame,-0.005689815549257132,-0.026824036133461935,-0.15641498355964767,0.9873107160375407,0.005859375,-0.00390625,-0.302734375,-0.1522642970085144,0.4887322932481766,-0.37007713317871094
606,951000000,imu2_frame,-0.003673759343321727,-0.026636395673327335,-0.15758709077084262,0.9871389541195321,0.0,-0.001953125,-0.11328125,-0.14247363805770874,0.44977525994181633,-0.37064266204833984
606,971000000,imu2_frame,-0.005501493371590973,-0.02740552729810821,-0.1586544903794902,0.9869384090846901,0.0,-0.001953125,-0.11328125,0.33704817295074463,-0.5921385549008846,-0.3265342712402344
606,991000000,imu2_frame,-0.0074361137193708435,-0.027824056518634194,-0.1597175313568756,0.986742537984892,0.0,-0.001953125,-0.11328125,0.20573866367340088,-0.595783282071352,-0.2904367446899414
607,11000000,imu2_frame,-0.00931588917640083,-0.02830485206194537,-0.15965876476057042,0.9867224170929397,0.009765625,-0.0078125,0.0,0.19061821699142456,-0.5609983652830124,-0.2892932891845703
607,31000000,imu2_frame,-0.010966398755107768,-0.029392144737805322,-0.15960854795100918,0.9866817882919633,0.009765625,-0.0078125,0.0,-0.02687603235244751,0.0065253376960754395,-0.3616313934326172
607,51000000,imu2_frame,-0.008925872268254217,-0.02906483362961003,-0.15966213029999968,0.9867033842033786,0.009765625,-0.0078125,0.0,-0.12750035524368286,0.2728521525859833,-0.32764244079589844
607,71000000,imu2_frame,-0.0068825623895399125,-0.02955501935753497,-0.15971893940064685,0.9866959975405102,0.009765625,-0.0078125,0.0,-0.01729971170425415,0.1537536457180977,-0.3628683090209961
607,91000000,imu2_frame,-0.008795138801202782,-0.029753441192087435,-0.15965496833173012,0.9866851926312113,0.009765625,-0.0078125,0.0,0.011982083320617676,-0.15369244664907455,-0.32689666748046875
607,111000000,imu2_frame,-0.00672849343974963,-0.03010496457980962,-0.15971309318387056,0.9866813803601038,0.009765625,-0.0078125,0.0,-0.0274161696434021,0.18812917545437813,-0.32711219787597656
607,131000000,imu2_frame,-0.008611121414601288,-0.03056712809147383,-0.15964942020061787,0.9866628410444112,0.009765625,-0.0078125,0.0,0.03593975305557251,-0.15978138148784637,-0.32599925994873047
607,151000000,imu2_frame,-0.006751488818183055,-0.029745506374405328,-0.1596981750658164,0.986694539931136,0.009765625,-0.0078125,0.0,-0.0205610990524292,-0.0017009451985359192,-0.3275260925292969
607,171000000,imu2_frame,-0.008817034254608674,-0.028794104714719954,-0.1601110382807306,0.9866395567081715,-0.025390625,0.017578125,-0.046875,-0.008699238300323486,0.04086548089981079,-0.3279867172241211
607,191000000,imu2_frame,-0.010442278581209143,-0.029990783848494695,-0.16054547303557043,0.9865174417059084,-0.025390625,0.017578125,-0.046875,0.002180933952331543,-0.006033778190612793,-0.32209300994873047
607,211000000,imu2_frame,-0.01264136803437317,-0.029959878429958193,-0.16095560053398664,0.9864258188811895,-0.025390625,0.017578125,-0.046875,-0.004172086715698242,-0.041918203234672546,-0.3250436782836914
607,231000000,imu2_frame,-0.011037930747006647,-0.030604336040731712,-0.1614913619828964,0.9863377102723181,-0.025390625,0.017578125,-0.046875,-0.011616706848144531,0.038078755140304565,-0.36408519744873047
607,251000000,imu2_frame,-0.009557597165552635,-0.03151167257082339,-0.1624872309412283,0.9861610246857571,-0.03125,0.0,-0.09375,-0.024514436721801758,0.0060271769762039185,-0.36357879638671875
607,271000000,imu2_frame,-0.010580499550398087,-0.02961383750028559,-0.16338894417002162,0.986060407166202,-0.03125,0.0,-0.09375,-0.10849565267562866,-0.04298834502696991,-0.3654441833496094
607,291000000,imu2_frame,-0.009209507819976842,-0.03070455855491511,-0.1643797296756284,0.9858761177356051,-0.03125,0.0,-0.09375,0.03104233741760254,0.11788105964660645,-0.3217201232910156
607,311000000,imu2_frame,-0.0075152121009610185,-0.030327851521765762,-0.1653747517303653,0.9857357325872242,-0.03125,0.0,-0.09375,-0.03444230556488037,0.046767596155405045,-0.326629638671875
607,331000000,imu2_frame,-0.00979135330476891,-0.030402619493947024,-0.16624588147224956,0.9855669013425129,-0.03125,0.0,-0.09375,-0.004244387149810791,-0.0625104308128357,-0.3218650817871094
607,351000000,imu2_frame,-0.009573684998418493,-0.028426629401394763,-0.16718589444170656,0.9854689990030905,-0.03125,0.0,-0.09375,-0.08277899026870728,0.013395600020885468,-0.3671884536743164
607,371000000,imu2_frame,-0.011248150650919603,-0.029813729706884767,-0.16808349304708442,0.9852576109794787,-0.03125,0.0,-0.09375,0.041205406188964844,-0.033670470118522644,-0.3219585418701172
607,391000000,imu2_frame,-0.009591788384500375,-0.029266502126554607,-0.16907374644340667,0.985122092794824,-0.03125,0.0,-0.09375,-0.02104717493057251,0.00985456258058548,-0.32717132568359375
607,411000000,imu2_frame,-0.009846206606731937,-0.03122009839567721,-0.17001571645348973,0.9848974636125472,-0.03125,0.0,-0.09375,-0.02048802375793457,0.007679082453250885,-0.3208589553833008
607,431000000,imu2_frame,-0.012097886895746474,-0.03084514092525746,-0.17088278623988074,0.9847341223806829,-0.03125,0.0,-0.09375,-0.02085942029953003,-0.06156821548938751,-0.32425403594970703
607,451000000,imu2_frame,-0.014228127777237398,-0.030048320255762435,-0.17174995571864937,0.9845794084482997,-0.03125,0.0,-0.09375,-0.051850080490112305,-0.13173572719097137,-0.32019996643066406
607,471000000,imu2_frame,-0.012630962669396933,-0.02932426025683642,-0.17273624486724998,0.9844504742502769,-0.03125,0.0,-0.09375,-0.03272294998168945,0.030765652656555176,-0.32578468322753906
607,491000000,imu2_frame,-0.010996506348999933,-0.029862401596082236,-0.173731788495089,0.9842787102672335,-0.03125,0.0,-0.09375,0.0013893842697143555,0.1882845163345337,-0.32201099395751953
607,511000000,imu2_frame,-0.013261536141075,-0.03006231510664117,-0.1746024677652715,0.9840906295254952,-0.03125,0.0,-0.09375,0.028798580169677734,-0.1521884649991989,-0.32460975646972656
607,531000000,imu2_frame,-0.013530443161068748,-0.028024600005122836,-0.1755188634383344,0.9839840839565106,-0.03125,0.0,-0.09375,-0.011230945587158203,0.011752724647521973,-0.3267822265625
607,551000000,imu2_frame,-0.014036147928134625,-0.029966120523025597,-0.1764594969583588,0.9837515255923835,-0.03125,0.0,-0.09375,0.02769458293914795,0.014203310012817383,-0.3633718490600586
607,571000000,imu2_frame,-0.01231400340471074,-0.029915635183475463,-0.17745478512012455,0.9835970818021413,-0.03125,0.0,-0.09375,-0.043669283390045166,0.13298609852790833,-0.3252553939819336
607,591000000,imu2_frame,-0.010597254533944098,-0.029768952679437133,-0.17844841543834397,0.9834417474768175,-0.03125,0.0,-0.09375,-0.035009562969207764,0.060814909636974335,-0.36135101318359375
607,611000000,imu2_frame,-0.009053837327712375,-0.030545887782783967,-0.17944040318001828,0.9832528253078133,-0.03125,0.0,-0.09375,-0.005561232566833496,0.06687168776988983,-0.32196617126464844
607,633000000,imu2_frame,-0.011539037328450595,-0.030189267607618732,-0.18039411902403849,0.9830632841075845,-0.03125,0.0,-0.09375,-0.0075272321701049805,-0.3065929487347603,-0.32529449462890625
607,651000000,imu2_frame,-0.013110869775291367,-0.028926928443556953,-0.18118247702811555,0.9829365431819659,-0.03125,0.0,-0.09375,-0.028005778789520264,-0.0028841644525527954,-0.32599639892578125
607,671000000,imu2_frame,-0.01526513669003944,-0.02818704318898479,-0.18204934368412734,0.9827667590340423,-0.03125,0.0,-0.09375,-0.02158433198928833,0.0015365928411483765,-0.32172107696533203
607,691000000,imu2_frame,-0.013803261696658171,-0.02912460657889948,-0.18304197772894387,0.9825766441592404,-0.03125,0.0,-0.09375,0.0045098066329956055,0.08278204500675201,-0.3215017318725586
607,711000000,imu2_frame,-0.015787266943933658,-0.030123213739326297,-0.183927074118433,0.9823513554745512,-0.03125,0.0,-0.09375,0.05621623992919922,-0.07468201220035553,-0.3231029510498047
607,731000000,imu2_frame,-0.01772976448198311,-0.031182065371372365,-0.18481366615927974,0.982118752010853,-0.03125,0.0,-0.09375,0.02873462438583374,-0.04180966317653656,-0.35571765899658203
607,751000000,imu2_frame,-0.01962454421700414,-0.032307822807534234,-0.1857022138613606,0.9818786939417218,-0.03125,0.0,-0.09375,8.875131607055664e-05,-0.010154664516448975,-0.3529376983642578
607,771000000,imu2_frame,-0.02186175013959849,-0.032655512086373906,-0.18656787754654602,0.9816557993915114,-0.03125,0.0,-0.09375,0.059285521507263184,-0.1956884264945984,-0.35068225860595703
607,791000000,imu2_frame,-0.020146483165425604,-0.03247796620116236,-0.1875680210354842,0.9815077882586228,-0.03125,0.0,-0.09375,-0.16182184219360352,0.5369776487350464,-0.31325435638427734
607,811000000,imu2_frame,-0.018460996948404022,-0.032053925145499367,-0.18856283700112705,0.9813642514258019,-0.03125,0.0,-0.09375,-0.06965059041976929,0.12270748615264893,-0.3580293655395508
607,831000000,imu2_frame,-0.020737763994123092,-0.032023060718618455,-0.18942240094140098,0.9811542298478517,-0.03125,0.0,-0.09375,0.0004584193229675293,-0.10365849733352661,-0.3172607421875
607,851000000,imu2_frame,-0.019017165078824484,-0.031882023434055044,-0.19042119348292977,0.9810003328677579,-0.03125,0.0,-0.09375,-0.14699196815490723,0.5155290961265564,-0.3148679733276367
607,871000000,imu2_frame,-0.017297225487073492,-0.0319038115916499,-0.19142110403251394,0.9808368435817181,-0.03125,0.0,-0.09375,-0.02405637502670288,0.020850449800491333,-0.31996822357177734
607,891000000,imu2_frame,-0.019461568787015694,-0.03250726050650376,-0.1922915714579299,0.9806061782902199,-0.03125,0.0,-0.09375,-0.004845917224884033,-0.018677592277526855,-0.3176536560058594
607,911000000,imu2_frame,-0.01794722656815157,-0.031578187948077124,-0.19327322632987368,0.9804724244406207,-0.03125,0.0,-0.09375,-0.09879535436630249,0.11138494312763214,-0.31992435455322266
607,931000000,imu2_frame,-0.016252582041440672,-0.031875080325816554,-0.19427383128551717,0.980294604345477,-0.03125,0.0,-0.09375,-0.020164906978607178,0.03804217278957367,-0.27772045135498047
607,951000000,imu2_frame,-0.01453208514448846,-0.03172124598741825,-0.1952702301584783,0.9801286233287008,-0.03125,0.0,-0.09375,-0.08898895978927612,0.2706182897090912,-0.3219156265258789
607,971000000,imu2_frame,-0.016714089814607563,-0.03107059670936215,-0.1961288230651781,0.979943234062495,-0.03125,0.0,-0.09375,-0.04595702886581421,-0.18176962435245514,-0.3604440689086914
607,991000000,imu2_frame,-0.018893385768760283,-0.030411358278015065,-0.19698606695198967,0.9797523557964357,-0.03125,0.0,-0.09375,-0.04188728332519531,-0.13807770609855652,-0.35971927642822266
608,11000000,imu2_frame,-0.017171556268956653,-0.030356863381004448,-0.19798073523305518,0.9795852321148723,-0.03125,0.0,-0.09375,-0.07351130247116089,0.2503855377435684,-0.35709190368652344
608,31000000,imu2_frame,-0.016155042695781805,-0.03183785560204755,-0.19896757719095795,0.9793555374698817,-0.03125,0.0,-0.09375,0.05423998832702637,0.10731546580791473,-0.3168907165527344
608,51000000,imu2_frame,-0.018429239861839898,-0.031878051377641894,-0.19982703037283245,0.9791390661651972,-0.03125,0.0,-0.09375,0.009294748306274414,-0.11554309725761414,-0.3192100524902344
608,71000000,imu2_frame,-0.0167127111317267,-0.031699042815309504,-0.20082267413058133,0.9789719656487937,-0.03125,0.0,-0.09375,-0.1370466947555542,0.4258502721786499,-0.32061100006103516
608,91000000,imu2_frame,-0.018946133965166513,-0.031238675132833658,-0.20167819775190723,0.9787701945478632,-0.03125,0.0,-0.09375,-0.020009994506835938,-0.10441948473453522,-0.27665233612060547
608,111000000,imu2_frame,-0.018875547027673068,-0.029228095380368902,-0.2025930507084633,0.9786447199926439,-0.03125,0.0,-0.09375,-0.020594000816345215,0.014868676662445068,-0.4001741409301758
608,131000000,imu2_frame,-0.020270762464268566,-0.030835902595174606,-0.20350349926500305,0.9783785407944906,-0.03125,0.0,-0.09375,0.02104973793029785,-0.004525482654571533,-0.3542499542236328
608,151000000,imu2_frame,-0.01855439366819155,-0.030641057983228925,-0.2044964498823143,0.9782116652477645,-0.03125,0.0,-0.09375,-0.23818892240524292,0.7674574851989746,-0.2815685272216797
608,171000000,imu2_frame,-0.01686715761666159,-0.030234401488158195,-0.20548490105115677,0.9780477163209287,-0.03125,0.0,-0.09375,-0.22389757633209229,0.505713939666748,-0.3183774948120117
608,191000000,imu2_frame,-0.019126899365619395,-0.02991558195828698,-0.2063422467765142,0.9778354139997052,-0.03125,0.0,-0.09375,0.003393888473510742,-0.3683532774448395,-0.36013031005859375
608,211000000,imu2_frame,-0.017407171729185437,-0.02997383278065147,-0.2073356747235568,0.9776556028110082,-0.03125,0.0,-0.09375,-0.14726626873016357,0.8244605213403702,-0.27925872802734375
608,231000000,imu2_frame,-0.015687369927923724,-0.030032737141896054,-0.20832821333803134,0.9774718904663674,-0.03125,0.0,-0.09375,-0.14161837100982666,0.790716677904129,-0.2803020477294922
608,251000000,imu2_frame,-0.013968757049146362,-0.030092414392555472,-0.20931980512751788,0.9772842675516202,-0.03125,0.0,-0.09375,-0.13592040538787842,0.7570019364356995,-0.28122901916503906
608,271000000,imu2_frame,-0.012254357941803575,-0.030239558402212208,-0.21031096776005356,0.977089912269543,-0.03125,0.0,-0.09375,-0.05371427536010742,0.30114205926656723,-0.3209962844848633
608,291000000,imu2_frame,-0.010539655770008193,-0.030010485635885625,-0.21129913868753894,0.9769037620963757,-0.03125,0.0,-0.09375,-0.04238426685333252,0.07730977982282639,-0.32593631744384766
608,311000000,imu2_frame,-0.012813761731293866,-0.03002437874063858,-0.21216090870918555,0.9766893533807076,-0.03125,0.0,-0.09375,0.025992929935455322,-0.18456898629665375,-0.36003875732421875
608,331000000,imu2_frame,-0.01508783240631364,-0.030048257694239192,-0.21302167218942117,0.9764687535709693,-0.03125,0.0,-0.09375,0.015981972217559814,-0.14182326197624207,-0.35876941680908203
608,351000000,imu2_frame,-0.013365851255351321,-0.03003605915167607,-0.21401161533142435,0.9762777359307603,-0.03125,0.0,-0.09375,-0.054886817932128906,0.16847874224185944,-0.3597421646118164
608,371000000,imu2_frame,-0.01164125258793626,-0.029961056747548245,-0.2150002334384305,0.9760848917682184,-0.03125,0.0,-0.09375,-0.08541548252105713,0.2876020669937134,-0.3255167007446289
608,391000000,imu2_frame,-0.0139164705229562,-0.029904637078927338,-0.215860481571779,0.9758669463738183,-0.03125,0.0,-0.09375,-0.015882253646850586,-0.01306256651878357,-0.3205394744873047
608,411000000,imu2_frame,-0.016189385967735555,-0.02993715654386063,-0.21672030599005576,0.9756402920193652,-0.03125,0.0,-0.09375,-0.026232481002807617,0.029582113027572632,-0.3191642761230469
608,431000000,imu2_frame,-0.014467991076989685,-0.029877142699455024,-0.21770933350803667,0.9754489631353346,-0.03125,0.0,-0.09375,-0.017964065074920654,-0.003623947501182556,-0.3202657699584961
608,451000000,imu2_frame,-0.01673580297823526,-0.029996516369797693,-0.21856940008668588,0.9752166627217238,-0.03125,0.0,-0.09375,-0.030035734176635742,0.03852854669094086,-0.3187437057495117
608,471000000,imu2_frame,-0.01556249502150226,-0.02857362939994236,-0.21952706447803932,0.9750637027462745,-0.03125,0.0,-0.09375,-0.03716796636581421,0.02166008949279785,-0.32501983642578125
608,491000000,imu2_frame,-0.01751741188260609,-0.029607163283022996,-0.22040656116527962,0.9748012638269216,-0.03125,0.0,-0.09375,-0.02634131908416748,0.014823555946350098,-0.35773563385009766
608,511000000,imu2_frame,-0.015822550122119368,-0.02923330139794479,-0.2213905324049813,0.9746185372536523,-0.03125,0.0,-0.09375,-0.01211625337600708,-0.01647917926311493,-0.3592710494995117
608,531000000,imu2_frame,-0.0141006194228869,-0.029247122228406017,-0.2223776262365639,0.9744198118483831,-0.03125,0.0,-0.09375,-0.12227374315261841,0.5242561250925064,-0.3641681671142578
608,551000000,imu2_frame,-0.01237781283096668,-0.0292631656834539,-0.22336374473783566,0.9742171700500845,-0.03125,0.0,-0.09375,-0.11521315574645996,0.4907587170600891,-0.36504077911376953
608,571000000,imu2_frame,-0.013618844955014184,-0.027453037003361113,-0.22424579702136146,0.9740506559412798,-0.03125,0.0,-0.09375,-0.08630645275115967,-0.052441224455833435,-0.28829288482666016
608,591000000,imu2_frame,-0.01203119504151042,-0.028112734383006793,-0.22522787224003726,0.9738261292846939,-0.03125,0.0,-0.09375,-0.013890206813812256,0.06618956476449966,-0.3625907897949219
608,611000000,imu2_frame,-0.014299061304267594,-0.028267564266578067,-0.2260901161446113,0.9735911570253543,-0.03125,0.0,-0.09375,0.012129545211791992,-0.08327044546604156,-0.3260965347290039
608,631000000,imu2_frame,-0.016560041398576978,-0.02845068581936594,-0.2269517092337741,0.9733494979611146,-0.03125,0.0,-0.09375,-0.0014919042587280273,-0.04160861670970917,-0.32452964782714844
608,651000000,imu2_frame,-0.018815489074537374,-0.02868579729497249,-0.22781289565235635,0.9731003992286338,-0.03125,0.0,-0.09375,-0.016148090362548828,-0.00031347572803497314,-0.3227071762084961
608,671000000,imu2_frame,-0.021001149089061203,-0.029216891855132005,-0.22867874079985093,0.9728367583893298,-0.03125,0.0,-0.09375,-0.03618806600570679,0.03829297423362732,-0.3204059600830078
608,691000000,imu2_frame,-0.019334592452423874,-0.028697698954917004,-0.22965775630113525,0.972656121442784,-0.03125,0.0,-0.09375,-0.0191347599029541,0.008304968476295471,-0.3223075866699219
608,711000000,imu2_frame,-0.019569537124568902,-0.03064106453461758,-0.23060373935985984,0.9723682809379198,-0.03125,0.0,-0.09375,-0.057326674461364746,0.0033708810806274414,-0.31987476348876953
608,731000000,imu2_frame,-0.01962255203604098,-0.028604258637974677,-0.23150832943421595,0.972214300060405,-0.03125,0.0,-0.09375,-0.019113898277282715,0.01299525797367096,-0.3221931457519531
608,751000000,imu2_frame,-0.017901552058019896,-0.028500633400779133,-0.2324924301159026,0.9720156985710008,-0.03125,0.0,-0.09375,-0.12677747011184692,0.40201540291309357,-0.35872650146484375
608,771000000,imu2_frame,-0.016251439656205124,-0.0279227257179034,-0.23346806849329077,0.9718275943250404,-0.03125,0.0,-0.09375,-0.030380427837371826,0.0289471298456192,-0.32530975341796875
608,791000000,imu2_frame,-0.014701104277670064,-0.027055314413366848,-0.2344365738168025,0.9716436488507759,-0.03125,0.0,-0.09375,-0.04607111215591431,0.04195220768451691,-0.3662424087524414
608,811000000,imu2_frame,-0.013105074146903912,-0.026301746191740607,-0.23540581654631837,0.9714528175444397,-0.03125,0.0,-0.09375,-0.024594783782958984,0.014545038342475891,-0.36789608001708984
608,831000000,imu2_frame,-0.01518925455095482,-0.025381808341879877,-0.23626670498980656,0.9712379185682273,-0.03125,0.0,-0.09375,-0.01686495542526245,0.018801435828208923,-0.3247041702270508
608,851000000,imu2_frame,-0.013587678069914818,-0.026006153597916682,-0.23724389352711606,0.9710068949105378,-0.03125,0.0,-0.09375,-0.021463751792907715,-0.015045896172523499,-0.3249778747558594
608,871000000,imu2_frame,-0.015718040396466588,-0.02518176560195381,-0.2381034887354276,0.9707860477671078,-0.03125,0.0,-0.09375,-0.015851259231567383,0.028721332550048828,-0.3245820999145508
608,891000000,imu2_frame,-0.01411745355775632,-0.0258020318803924,-0.23908037631220252,0.9705542366701119,-0.03125,0.0,-0.09375,-0.02032482624053955,-0.00509507954120636,-0.32489776611328125
608,911000000,imu2_frame,-0.016217868050831447,-0.024908301485550816,-0.23993953212774202,0.9703327152040743,-0.03125,0.0,-0.09375,-0.013349652290344238,0.038441240787506104,-0.3245372772216797
608,931000000,imu2_frame,-0.0146485921446331,-0.025613309484600562,-0.2409159510958194,0.9700973567807631,-0.03125,0.0,-0.09375,-0.01952338218688965,0.004813581705093384,-0.32478809356689453
608,951000000,imu2_frame,-0.015129823686581093,-0.023564443745247507,-0.24181116672612032,0.9699191538848703,-0.03125,0.0,-0.09375,0.01687932014465332,0.023122593760490417,-0.3264780044555664
608,971000000,imu2_frame,-0.01496551491559726,-0.02545253170779916,-0.24275653328109073,0.9696378022449008,-0.03125,0.0,-0.09375,-0.018276512622833252,0.010530129075050354,-0.3247652053833008
608,991000000,imu2_frame,-0.013311050046225703,-0.025909888078495022,-0.24373219890054554,0.9694050282856653,-0.03125,0.0,-0.09375,-0.01923072338104248,-0.023552894592285156,-0.32522106170654297
609,11000000,imu2_frame,-0.015514131084666573,-0.02530140405061868,-0.24459013762254866,0.9691722319936419,-0.03125,0.0,-0.09375,-0.018341362476348877,0.02059757709503174,-0.3245878219604492
609,31000000,imu2_frame,-0.013855961803541532,-0.025731158183270438,-0.24556545286394701,0.9689393831302198,-0.03125,0.0,-0.09375,-0.018702268600463867,-0.013423994183540344,-0.32511234283447266
609,51000000,imu2_frame,-0.01606335156015946,-0.02514257620304635,-0.24642268126726546,0.9687030926736947,-0.03125,0.0,-0.09375,-0.018303215503692627,0.03071373701095581,-0.3244056701660156
609,71000000,imu2_frame,-0.017593673924084806,-0.026637129422936327,-0.24731704417866976,0.9684085943612256,-0.03125,0.0,-0.09375,0.06305903196334839,-0.026200100779533386,-0.3257923126220703
609,91000000,imu2_frame,-0.019046932256571263,-0.028189076203157543,-0.24821385469925922,0.9681076761857439,-0.03125,0.0,-0.09375,0.026487648487091064,-0.006799325346946716,-0.3230886459350586
609,111000000,imu2_frame,-0.020353767228928985,-0.02983700039326615,-0.24911599749542862,0.9677999263065586,-0.03125,0.0,-0.09375,-0.011217117309570312,0.00928671658039093,-0.32021331787109375
609,131000000,imu2_frame,-0.02118507275155937,-0.02785878760923075,-0.2499895422360689,0.9676157860525301,-0.03125,0.0,-0.09375,-0.05622905492782593,-0.004968136548995972,-0.35692501068115234
609,151000000,imu2_frame,-0.01947650618647337,-0.0280417265215848,-0.25097231807474996,0.9673919695969381,-0.03125,0.0,-0.09375,-0.12971657514572144,0.8440104573965073,-0.27995872497558594
609,171000000,imu2_frame,-0.02157221532139498,-0.02880249972661403,-0.25183854636879466,0.9670999959148372,-0.03125,0.0,-0.09375,0.11494719982147217,-0.15585967898368835,-0.3164939880371094
609,191000000,imu2_frame,-0.023658235935098276,-0.029585729053144317,-0.2527044660724819,0.9668016473588857,-0.03125,0.0,-0.09375,0.08964419364929199,-0.12091976404190063,-0.31375598907470703
609,211000000,imu2_frame,-0.02193668108463239,-0.029485466032426275,-0.25368812461929696,0.9665876704898453,-0.03125,0.0,-0.09375,-0.16978758573532104,0.5377890169620514,-0.27634239196777344
609,231000000,imu2_frame,-0.024204036280281126,-0.02928531894517264,-0.2545327553551328,0.9663175519327724,-0.03125,0.0,-0.09375,0.017818689346313477,-0.2236781120300293,-0.39562225341796875
609,251000000,imu2_frame,-0.026469904253301767,-0.029087926668163115,-0.25537602285557415,0.9660415744891303,-0.03125,0.0,-0.09375,0.009994268417358398,-0.18051889538764954,-0.3936023712158203
609,271000000,imu2_frame,-0.028736466322137152,-0.02889298226053737,-0.25621783198790593,0.9657597183828006,-0.03125,0.0,-0.09375,0.002047300338745117,-0.13737916946411133,-0.39137840270996094
609,291000000,imu2_frame,-0.02703048560759561,-0.02910624321929675,-0.2572072372232112,0.9655395468718407,-0.03125,0.0,-0.09375,-0.07195776700973511,0.4028874635696411,-0.31096458435058594
609,311000000,imu2_frame,-0.025364546061180947,-0.028587811660601332,-0.25818061770194156,0.9653404298332336,-0.03125,0.0,-0.09375,-0.09323126077651978,0.14294034242630005,-0.35622406005859375
609,331000000,imu2_frame,-0.02369357949715163,-0.02809097160290579,-0.2591531534090375,0.9651368580067642,-0.03125,0.0,-0.09375,-0.07576179504394531,0.11328884959220886,-0.35837745666503906
609,351000000,imu2_frame,-0.02201563499249622,-0.027622159950103243,-0.2601249666815921,0.9649286656558965,-0.03125,0.0,-0.09375,-0.05872303247451782,0.08339378237724304,-0.36038684844970703
609,371000000,imu2_frame,-0.020326210096870096,-0.027192562261381913,-0.2610963076412032,0.9647155683811104,-0.03125,0.0,-0.09375,-0.042302489280700684,0.05311189591884613,-0.3622455596923828
609,391000000,imu2_frame,-0.018603071266198357,-0.02715045893006595,-0.26207216026944025,0.9644868900773407,-0.03125,0.0,-0.09375,-0.032947659492492676,0.0592942088842392,-0.3245391845703125
609,411000000,imu2_frame,-0.016879741406607928,-0.02713794281773562,-0.2630471256984987,0.9642535019648233,-0.03125,0.0,-0.09375,-0.024081289768218994,0.02627415955066681,-0.3257474899291992
609,431000000,imu2_frame,-0.015158654512287565,-0.02720163292573697,-0.2640215020385348,0.9640139692042157,-0.03125,0.0,-0.09375,-0.016593456268310547,-0.00708220899105072,-0.32675743103027344
609,451000000,imu2_frame,-0.017030030336724088,-0.02592857345239887,-0.26487576252450173,0.963783439146221,-0.03125,0.0,-0.09375,-0.04149216413497925,-0.0438830703496933,-0.3269023895263672
609,471000000,imu2_frame,-0.015323568268344296,-0.02560594541541791,-0.26584307528780254,0.9635543488233717,-0.03125,0.0,-0.09375,-0.06581664085388184,0.11649243533611298,-0.3673696517944336
609,491000000,imu2_frame,-0.013615831519690175,-0.025309773390035966,-0.2668092394778987,0.9633207431755002,-0.03125,0.0,-0.09375,-0.05150556564331055,0.08532649278640747,-0.36862945556640625
609,511000000,imu2_frame,-0.011901967177019723,-0.025049757511594186,-0.26777440703395605,0.9630824054895515,-0.03125,0.0,-0.09375,-0.03777879476547241,0.05388215184211731,-0.36974048614501953
609,531000000,imu2_frame,-0.010182717002048784,-0.024847988070202803,-0.26873860070091804,0.962838747795617,-0.03125,0.0,-0.09375,-0.025054931640625,0.022055640816688538,-0.3706798553466797
609,551000000,imu2_frame,-0.008458221299704322,-0.02479183589492757,-0.2697020027779904,0.9625874781353355,-0.03125,0.0,-0.09375,-0.014976680278778076,-0.010614166036248207,-0.37136268615722656
609,571000000,imu2_frame,-0.010728345092229554,-0.02488836014456691,-0.27055945023310135,0.9623217009038393,-0.03125,0.0,-0.09375,-0.028811156749725342,0.031118392944335938,-0.37041664123535156
609,591000000,imu2_frame,-0.009007938241997518,-0.024753593555533443,-0.27152237850448363,0.9620715745857911,-0.03125,0.0,-0.09375,-0.017226219177246094,-0.001040782779455185,-0.37121105194091797
609,611000000,imu2_frame,-0.011080468185978468,-0.02555943088443814,-0.272385750291269,0.9617847689352881,-0.03125,0.0,-0.09375,-0.04342383146286011,0.03316421061754227,-0.36960506439208984
609,635000000,imu2_frame,-0.00917597295444318,-0.024598291830937886,-0.2735351852418694,0.9615036286951993,-0.03125,0.0,-0.09375,-0.015285491943359375,0.0018738247454166412,-0.37130165100097656
609,651000000,imu2_frame,-0.009713701899707107,-0.02610487303558466,-0.274256992481554,0.9612529748584253,-0.03125,0.0,-0.09375,-0.046484947204589844,0.003508850932121277,-0.3696107864379883
609,671000000,imu2_frame,-0.01192408471840139,-0.026534877390283155,-0.2751128230938829,0.9609717222971886,-0.03125,0.0,-0.09375,0.05071943998336792,-0.11011701822280884,-0.32917022705078125
609,691000000,imu2_frame,-0.014125686151861801,-0.026999790702955002,-0.2759679108024109,0.9606837088761776,-0.03125,0.0,-0.09375,0.030062735080718994,-0.07179252058267593,-0.3275623321533203
609,711000000,imu2_frame,-0.016309871839297777,-0.02751449112426709,-0.2768226801320056,0.9603885383652241,-0.03125,0.0,-0.09375,0.00850135087966919,-0.03410683572292328,-0.325714111328125
609,731000000,imu2_frame,-0.018461589351977004,-0.028123159344670266,-0.27767807478795214,0.9600849672862969,-0.03125,0.0,-0.09375,-0.014709949493408203,0.0024136751890182495,-0.3235902786254883
609,751000000,imu2_frame,-0.020253673794655924,-0.02934737535940704,-0.27855005652344345,0.9597595460677223,-0.03125,0.0,-0.09375,-0.04757016897201538,0.028771623969078064,-0.3208589553833008
609,771000000,imu2_frame,-0.018869794112062334,-0.028162215941345745,-0.27950199604758963,0.9595464838499773,-0.03125,0.0,-0.09375,-0.018035888671875,0.008660033345222473,-0.32324981689453125
609,791000000,imu2_frame,-0.01846624458889592,-0.029972948136345476,-0.28045084301591416,0.959222573151019,-0.03125,0.0,-0.09375,-0.049945712089538574,-0.009475082159042358,-0.3214855194091797
609,811000000,imu2_frame,-0.019171747967180273,-0.027952296044902143,-0.2813259021705566,0.9590134774827846,-0.03125,0.0,-0.09375,-0.016140282154083252,0.01427413523197174,-0.3232545852661133
609,831000000,imu2_frame,-0.018112439518465417,-0.029374492463910915,-0.2822917820351768,0.9587076866921334,-0.03125,0.0,-0.09375,-0.037141382694244385,-0.014067485928535461,-0.3224334716796875
609,851000000,imu2_frame,-0.01954237441615183,-0.02767275923544756,-0.2831456058007657,0.9584784191176101,-0.03125,0.0,-0.09375,-0.013343751430511475,0.02157030999660492,-0.32327842712402344
609,871000000,imu2_frame,-0.018359871616722506,-0.02897497074316239,-0.28411392702086374,0.9581767283009087,-0.03125,0.0,-0.09375,-0.03137296438217163,-0.00844864547252655,-0.3227119445800781
609,891000000,imu2_frame,-0.01988048802571028,-0.027340473466711715,-0.28496462902568875,0.9579417648848635,-0.03125,0.0,-0.09375,-0.009409427642822266,0.02856343984603882,-0.3233757019042969
609,911000000,imu2_frame,-0.01872191777952398,-0.028664513969377876,-0.28593202642618454,0.9576380901454222,-0.03125,0.0,-0.09375,-0.027932405471801758,-0.0011592954397201538,-0.3227996826171875
609,931000000,imu2_frame,-0.020027899007747336,-0.02687889755018647,-0.2867873680088778,0.9574076528200319,-0.03125,0.0,-0.09375,-0.002020716667175293,0.03272807598114014,-0.3237495422363281
609,951000000,imu2_frame,-0.019086745134034563,-0.028395426404061914,-0.2877492138276442,0.9570944498120824,-0.03125,0.0,-0.09375,-0.025310516357421875,0.00596243143081665,-0.3228302001953125
609,971000000,imu2_frame,-0.01903707839671464,-0.026351489959719185,-0.28864536242850214,0.9568840281724525,-0.03125,0.0,-0.09375,0.012982070446014404,0.01599004864692688,-0.3250551223754883
609,991000000,imu2_frame,-0.019355932155305067,-0.028277885725389695,-0.2895697461598138,0.9565432928928216,-0.03125,0.0,-0.09375,-0.025009572505950928,0.0104447603225708,-0.32275867462158203
610,11000000,imu2_frame,-0.017887821398734727,-0.02722752992524911,-0.29052163885565346,0.9563136853650073,-0.03125,0.0,-0.09375,0.0027281641960144043,-0.011646926403045654,-0.3249673843383789
610,31000000,imu2_frame,-0.019783028125138557,-0.028315380789667596,-0.2913857432649271,0.9559818092573111,-0.03125,0.0,-0.09375,-0.02851957082748413,0.01699596643447876,-0.3223905563354492
610,51000000,imu2_frame,-0.018167340857096072,-0.027591989209757934,-0.2923454405758381,0.9557420013958526,-0.03125,0.0,-0.09375,-0.0060114264488220215,-0.00967821478843689,-0.32437992095947266
610,71000000,imu2_frame,-0.020240384829571953,-0.028383851356066976,-0.29320008781036827,0.9554152983452482,-0.03125,0.0,-0.09375,-0.03280746936798096,0.023921623826026917,-0.3219566345214844
610,91000000,imu2_frame,-0.018603750303030582,-0.027716333928119043,-0.2941607588339087,0.9551728394748807,-0.03125,0.0,-0.09375,-0.011180222034454346,-0.003426164388656616,-0.3239316940307617
610,111000000,imu2_frame,-0.02065006800461093,-0.028559911284048833,-0.29501605145281584,0.9548420997966321,-0.03125,0.0,-0.09375,-0.0388566255569458,0.02931860089302063,-0.32143306732177734
610,131000000,imu2_frame,-0.019058848866915418,-0.027769470787212598,-0.29597375045664837,0.9546020929228534,-0.03125,0.0,-0.09375,-0.015154659748077393,0.003568589687347412,-0.32353878021240234
610,151000000,imu2_frame,-0.02072624786332541,-0.029122348821371387,-0.29684578813548557,0.9542561970010238,-0.03125,0.0,-0.09375,-0.05020129680633545,0.02621808648109436,-0.3207368850708008
610,171000000,imu2_frame,-0.01944096061782492,-0.027796546061286977,-0.2977879094191354,0.9540292249617408,-0.03125,0.0,-0.09375,-0.018248796463012695,0.009338676929473877,-0.32322216033935547
610,191000000,imu2_frame,-0.0187537579870402,-0.029474401561153447,-0.29873935836558796,0.9536951043060314,-0.03125,0.0,-0.09375,-0.045693814754486084,-0.013914152979850769,-0.3218564987182617
610,211000000,imu2_frame,-0.01977626500837477,-0.02754783774696751,-0.29959968839789747,0.9534621349008402,-0.03125,0.0,-0.09375,-0.015957355499267578,0.01584446430206299,-0.32323360443115234
610,231000000,imu2_frame,-0.01864916793078686,-0.02890460292381873,-0.3005618203130961,0.9531418176931404,-0.03125,0.0,-0.09375,-0.034812748432159424,-0.013767942786216736,-0.3225831985473633
610,251000000,imu2_frame,-0.019989237652919902,-0.027300927665345434,-0.30069545027475747,0.9531197909553275,-0.01171875,0.0,-0.01953125,-0.012848138809204102,0.020541146397590637,-0.3233327865600586
610,271000000,imu2_frame,-0.018928358880735754,-0.028743376679579727,-0.3004254489363898,0.9531841821801843,-0.02734375,-0.005859375,0.03515625,-0.03342252969741821,-0.00752672553062439,-0.3225593566894531
610,291000000,imu2_frame,-0.01728832343579059,-0.028186692750738707,-0.3001555406086405,0.9533169859320085,-0.02734375,-0.005859375,0.03515625,-0.16574543714523315,0.23491008579730988,-0.3204336166381836
610,311000000,imu2_frame,-0.01564227315029691,-0.027644957000510638,-0.29988457802100615,0.9534465457005414,-0.02734375,-0.005859375,0.03515625,-0.14597994089126587,0.20760107040405273,-0.3220853805541992
610,331000000,imu2_frame,-0.013832869279527642,-0.027092155321780154,-0.2998891479540849,0.9534889437150749,-0.013671875,0.001953125,0.005859375,-0.12509441375732422,0.1771283596754074,-0.3237190246582031
610,351000000,imu2_frame,-0.011757014929262082,-0.026658403862650663,-0.30007098648135705,0.9534718166655761,0.013671875,0.0,-0.013671875,-0.10487431287765503,0.14088250696659088,-0.3252124786376953
610,371000000,imu2_frame,-0.009683599382773021,-0.026207032247794516,-0.3002516252266589,0.9534507752959807,0.013671875,0.0,-0.013671875,-0.0843234658241272,0.10478990338742733,-0.32654762268066406
610,391000000,imu2_frame,-0.007618806386488132,-0.025733549745532762,-0.30043092369105756,0.9534259270110487,0.013671875,0.0,-0.013671875,-0.06339490413665771,0.06899283174425364,-0.3277273178100586
610,411000000,imu2_frame,-0.005560482954919181,-0.025225241593607454,-0.3006089989181351,0.9533976074992474,0.013671875,0.0,-0.013671875,-0.0418393611907959,0.03352651745080948,-0.3287639617919922
610,431000000,imu2_frame,-0.0035231103826817082,-0.024650656309193178,-0.30078562731961445,0.9533666342151393,0.013671875,0.0,-0.013671875,-0.01915675401687622,-0.0011533498764038086,-0.32968616485595703
610,451000000,imu2_frame,-0.0019905852542294487,-0.02326288914351108,-0.30095214128900155,0.9533533889448378,0.013671875,0.0,-0.013671875,0.015715181827545166,-0.02162974327802658,-0.33115100860595703
610,471000000,imu2_frame,-0.0033476147755599037,-0.024635296540474017,-0.3010379662497797,0.9532880144614607,0.013671875,0.0,-0.013671875,-0.017817050218582153,-0.004460126161575317,-0.3297243118286133
610,491000000,imu2_frame,-0.004127449823989516,-0.022898124196509592,-0.30114952499017345,0.953293031373053,0.013671875,0.0,-0.013671875,0.009953111410140991,0.02024409919977188,-0.3312244415283203
610,511000000,imu2_frame,-0.003184122770714531,-0.02476963970778097,-0.30128932568712374,0.9532056800806036,0.013671875,0.0,-0.013671875,-0.019334077835083008,-0.00842399150133133,-0.32961559295654297
610,531000000,imu2_frame,-0.0044039008310837804,-0.02333867011177703,-0.3013889825745136,0.9532054308057539,0.013671875,0.0,-0.013671875,0.00013586878776550293,0.02268540859222412,-0.330780029296875
610,551000000,imu2_frame,-0.002988541547810783,-0.024913610124994257,-0.30154130892846454,0.9531228775240186,0.013671875,0.0,-0.013671875,-0.020839184522628784,-0.013043589890003204,-0.329498291015625
610,571000000,imu2_frame,-0.004331327791705056,-0.023606136177071,-0.3016375706006278,0.9531205411365877,0.013671875,0.0,-0.013671875,-0.004402041435241699,0.019635584205389023,-0.3305473327636719
610,591000000,imu2_frame,-0.0032925305188989855,-0.024838961164005458,-0.3032591793086992,0.9525786347678019,-0.044921875,0.005859375,-0.166015625,-0.021086513996124268,-0.00780913233757019,-0.32953453063964844
610,611000000,imu2_frame,-0.00415212655729845,-0.023169017309503052,-0.3039297001611891,0.9524036401872339,0.0078125,-0.0078125,-0.072265625,0.00493699312210083,0.01777796447277069,-0.3309764862060547
610,631000000,imu2_frame,-0.003190602370834653,-0.02505735286086945,-0.30463035425312057,0.9521356502052297,0.0078125,-0.0078125,-0.072265625,-0.024417251348495483,-0.011700861155986786,-0.3293342590332031
610,651000000,imu2_frame,-0.004099345265473738,-0.02341524329065992,-0.30529938756191777,0.9519596660071011,0.0078125,-0.0078125,-0.072265625,0.0007602274417877197,0.01467006653547287,-0.3307609558105469
610,671000000,imu2_frame,-0.0030896246236413296,-0.025278341124238872,-0.30600082597496603,0.9516905769168519,0.0078125,-0.0078125,-0.072265625,-0.027791827917099,-0.015600219368934631,-0.3291292190551758
610,691000000,imu2_frame,-0.0040158897660160725,-0.023642617712168797,-0.3066692332365688,0.9515139939292531,0.0078125,-0.0078125,-0.072265625,-0.0028742849826812744,0.011092141270637512,-0.3305644989013672
610,711000000,imu2_frame,-0.0029972973793063566,-0.025500726827613136,-0.3073704145893587,0.9512434795439332,0.0078125,-0.0078125,-0.072265625,-0.031233996152877808,-0.019356831908226013,-0.3289203643798828
610,731000000,imu2_frame,-0.003919057809849915,-0.023864277559018442,-0.3080387622823069,0.9510663794783485,0.0078125,-0.0078125,-0.072265625,-0.006312757730484009,0.007289223372936249,-0.33037376403808594
610,751000000,imu2_frame,-0.0029196188750458094,-0.025734826537027695,-0.3087389269263126,0.9507941257333906,0.0078125,-0.0078125,-0.072265625,-0.034972161054611206,-0.022921763360500336,-0.3286933898925781
610,771000000,imu2_frame,-0.004072877315805932,-0.023880320954156722,-0.30889552353594624,0.950787409193533,-0.021484375,0.00390625,-0.017578125,-0.007475137710571289,0.009630098938941956,-0.3303346633911133
610,791000000,imu2_frame,-0.002796797327683278,-0.02543447651876881,-0.30873140101809476,0.9508050206821209,0.005859375,0.005859375,0.01953125,-0.028653889894485474,-0.023387514054775238,-0.3290081024169922
610,811000000,imu2_frame,-0.003969988550493717,-0.024083025439659164,-0.3085899440468241,0.9508819556126616,0.017578125,-0.01171875,0.01171875,-0.010642021894454956,0.006645143032073975,-0.33016109466552734
610,831000000,imu2_frame,-0.0028087836278360137,-0.02543211582392473,-0.3087888983467009,0.9507863768886684,-0.021484375,0.0078125,-0.017578125,-0.028676241636276245,-0.023180097341537476,-0.3290090560913086
610,851000000,imu2_frame,-0.004042306921433741,-0.023965307924877843,-0.30935645276299967,0.9506355289514025,0.005859375,-0.00390625,-0.0625,-0.008835405111312866,0.008320845663547516,-0.3302602767944336
610,871000000,imu2_frame,-0.0027322357591167464,-0.02558333184681239,-0.30997278001776335,0.9503972346694995,0.005859375,-0.00390625,-0.0625,-0.030893146991729736,-0.026128306984901428,-0.32886600494384766
610,891000000,imu2_frame,-0.003946284103157619,-0.02409766321505917,-0.31054075609143467,0.9502463724084985,0.005859375,-0.00390625,-0.0625,-0.010622262954711914,0.005148299038410187,-0.3301506042480469
610,911000000,imu2_frame,-0.002679303040581024,-0.02574684105948303,-0.3111555381413943,0.9500063960808968,0.005859375,-0.00390625,-0.0625,-0.03347522020339966,-0.028718076646327972,-0.3287086486816406
610,931000000,imu2_frame,-0.0038502443765276355,-0.024229696198141037,-0.3117245609843152,0.9498557235283275,0.005859375,-0.00390625,-0.0625,-0.012395739555358887,0.001972876489162445,-0.33004093170166016
610,951000000,imu2_frame,-0.0026799307537094547,-0.025948110313545058,-0.31233632964328295,0.9496133585450838,0.005859375,-0.00390625,-0.0625,-0.037079185247421265,-0.030550114810466766,-0.3285045623779297
610,971000000,imu2_frame,-0.003613347507087348,-0.02436587833894125,-0.31305270124902396,0.9494162701014,0.01953125,0.0,-0.078125,-0.013365298509597778,-0.0039190202951431274,-0.32994556427001953
610,991000000,imu2_frame,-0.005341187438308899,-0.02571987528639726,-0.313097338617043,0.9493576861662445,-0.041015625,0.0,-0.0078125,-0.0490412712097168,0.01983291283249855,-0.32831764221191406
611,11000000,imu2_frame,-0.0036703403207673656,-0.024508408077022495,-0.313882020206412,0.9491385272585879,0.005859375,0.001953125,-0.078125,-0.01628565788269043,-0.004150748252868652,-0.3298015594482422
611,31000000,imu2_frame,-0.005369090046692624,-0.023598686480183984,-0.3145819046144353,0.9489217566046396,0.005859375,0.001953125,-0.078125,-0.009803622961044312,0.032602131366729736,-0.33035755157470703
611,51000000,imu2_frame,-0.003527819365287837,-0.024555457685895225,-0.31536138209402587,0.9486473436805207,0.005859375,0.001953125,-0.078125,-0.01615002751350403,-0.007827483117580414,-0.3297767639160156
611,71000000,imu2_frame,-0.005336080280388382,-0.023894055538429264,-0.3160572738497894,0.9484241667122401,0.005859375,0.001953125,-0.078125,-0.015000790357589722,0.02943257987499237,-0.3300905227661133
611,91000000,imu2_frame,-0.003602330702959545,-0.02464273059292328,-0.31686276126616014,0.9481443716888349,-0.013671875,-0.009765625,-0.080078125,-0.018091201782226562,-0.0077424198389053345,-0.3296823501586914
611,111000000,imu2_frame,-0.005265095415010188,-0.023394893410181524,-0.3175926938753995,0.9479239624197522,-0.013671875,-0.009765625,-0.080078125,-0.005237579345703125,0.030446801334619522,-0.33056640625
611,131000000,imu2_frame,-0.0035652133409960563,-0.02461644425573766,-0.31914372217883336,0.9473798628427126,0.005859375,0.0,-0.16015625,-0.01716512441635132,-0.009418323636054993,-0.3297128677368164
611,151000000,imu2_frame,-0.0051572937747022644,-0.02373111427195133,-0.3201733389569392,0.9470476596019325,0.015625,0.0,-0.11328125,-0.010651856660842896,0.02507660537958145,-0.3302783966064453
611,171000000,imu2_frame,-0.0032789238734433233,-0.02464105237893508,-0.322115562369037,0.9463739386075516,0.005859375,0.01171875,-0.201171875,-0.015540868043899536,-0.016369424760341644,-0.3297271728515625
611,191000000,imu2_frame,-0.005174995540345496,-0.02399825465423722,-0.3250473979595536,0.945379020432774,-0.0078125,0.005859375,-0.314453125,-0.01541823148727417,0.02127722278237343,-0.33002567291259766
611,211000000,imu2_frame,-0.003057044977844549,-0.024795717943952588,-0.3277244529944923,0.9444429626807054,0.01953125,-0.001953125,-0.279296875,-0.01640421152114868,-0.024281717836856842,-0.3296051025390625
611,231000000,imu2_frame,-0.004977391352086695,-0.024106924256513316,-0.32923238047085535,0.9439280276735683,-0.0078125,-0.001953125,-0.1640625,-0.015894323587417603,0.014821872115135193,-0.32996273040771484
611,251000000,imu2_frame,-0.0031336553223770317,-0.024785932143226413,-0.33082546419722236,0.9433611980629711,-0.0078125,-0.001953125,-0.1640625,-0.01638016104698181,-0.024373434484004974,-0.3296060562133789
611,271000000,imu2_frame,-0.005052456169436835,-0.024093075473919336,-0.332331667911233,0.9428412691986928,-0.0078125,-0.001953125,-0.1640625,-0.015916168689727783,0.014729112386703491,-0.32996082305908203
611,291000000,imu2_frame,-0.003210198355352052,-0.024775841118747418,-0.333922906060034,0.9422692529907785,-0.0078125,-0.001953125,-0.1640625,-0.016354650259017944,-0.02446531504392624,-0.3296060562133789
611,311000000,imu2_frame,-0.005127476144933826,-0.024079027622067782,-0.33542736841374504,0.9417443336363583,-0.0078125,-0.001953125,-0.1640625,-0.01593858003616333,0.014635950326919556,-0.3299589157104492
611,331000000,imu2_frame,-0.003286710341143953,-0.02476545377087358,-0.3370167443742225,0.9411671391660762,-0.0078125,-0.001953125,-0.1640625,-0.01632794737815857,-0.024556778371334076,-0.3296070098876953
611,351000000,imu2_frame,-0.0052024859140729135,-0.024064779251190088,-0.33851944740472995,0.9406372330865399,-0.0078125,-0.001953125,-0.1640625,-0.015961885452270508,0.014543093740940094,-0.3299579620361328
611,371000000,imu2_frame,-0.00336320375308541,-0.024754727810790772,-0.3401069450844212,0.9400548697905199,-0.0078125,-0.001953125,-0.1640625,-0.01629948616027832,-0.024647273123264313,-0.3296070098876953
611,391000000,imu2_frame,-0.0057040670552356235,-0.023757967183063715,-0.34038978420392657,0.9399669235797407,-0.0546875,0.01171875,-0.033203125,-0.013536781072616577,0.0248524509370327,-0.3301372528076172
611,411000000,imu2_frame,-0.0037387950323591584,-0.024601602565986144,-0.3406297037247936,0.9398681755987115,0.013671875,0.005859375,-0.021484375,-0.01593109965324402,-0.016992680728435516,-0.32970237731933594
611,431000000,imu2_frame,-0.005472160914647149,-0.023929341961829664,-0.34078506389365376,0.9398207181559662,0.013671875,0.005859375,-0.021484375,-0.015116393566131592,0.019250676035881042,-0.3300285339355469
611,451000000,imu2_frame,-0.0039119373141007965,-0.024544664329950016,-0.34116591026893234,0.9396744531324406,-0.033203125,0.00390625,-0.03515625,-0.01598605513572693,-0.013704724609851837,-0.3297309875488281
611,471000000,imu2_frame,-0.00532164339264023,-0.024148453030615254,-0.3416598710697677,0.9394983048565971,0.052734375,-0.009765625,-0.05859375,-0.018077880144119263,0.014579489827156067,-0.32985401153564453
611,491000000,imu2_frame,-0.0032392488168528195,-0.024492228387528597,-0.34197955320158535,0.9393825755291395,0.0078125,0.015625,-0.029296875,-0.010448604822158813,-0.026118963956832886,-0.3298759460449219
611,511000000,imu2_frame,-0.0050920132626717214,-0.0241466126933276,-0.34220600516775734,0.9393008370716466,0.0078125,0.015625,-0.029296875,-0.016471564769744873,0.010097309947013855,-0.32990264892578125
611,531000000,imu2_frame,-0.003251800761308285,-0.024685546190853978,-0.34271087932870203,0.9391109108038389,-0.009765625,0.005859375,-0.048828125,-0.013997673988342285,-0.02755090594291687,-0.32968807220458984
611,551000000,imu2_frame,-0.004997293601725099,-0.02418214777152212,-0.34284548175277396,0.9390672108148184,0.017578125,0.00390625,-0.01953125,-0.016442477703094482,0.007795386016368866,-0.32988739013671875
611,571000000,imu2_frame,-0.0032084489910681685,-0.02469478664174615,-0.34331507245418796,0.9388901077301678,-0.015625,0.005859375,-0.044921875,-0.013808190822601318,-0.028714105486869812,-0.3296842575073242
611,591000000,imu2_frame,-0.005134879539922773,-0.024235083332457687,-0.34352636969483774,0.9388162371157973,0.001953125,-0.005859375,-0.02734375,-0.0182856023311615,0.00961843878030777,-0.32981014251708984
611,611000000,imu2_frame,-0.0027954641000932597,-0.02467099499053558,-0.343857085830688,0.9386936837492138,0.037109375,0.00390625,-0.03125,-0.010535061359405518,-0.03640594333410263,-0.3297567367553711
611,636000000,imu2_frame,-0.005216929310285065,-0.02421207411035169,-0.3443259183432628,0.9385234259585186,0.001953125,0.0,-0.044921875,-0.018357306718826294,0.010870382189750671,-0.3298158645629883
611,651000000,imu2_frame,-0.0038811957559744615,-0.02437296331422829,-0.34454414567553726,0.9384456439557388,-0.0234375,0.0078125,-0.025390625,-0.012298107147216797,-0.014827020466327667,-0.32989978790283203
611,671000000,imu2_frame,-0.005977398336211225,-0.02481589057043728,-0.34473853816688044,0.9383516305665422,-0.0234375,0.0078125,-0.025390625,0.11782604455947876,-0.17086895927786827,-0.3290700912475586
611,691000000,imu2_frame,-0.008063353405108399,-0.025291918761115507,-0.3449322384634898,0.9382521260545119,-0.0234375,0.0078125,-0.025390625,0.09505689144134521,-0.13592738285660744,-0.3280315399169922
611,711000000,imu2_frame,-0.009825864520694899,-0.02608819806874076,-0.34496785651248374,0.938200424366313,0.015625,-0.0078125,-0.009765625,0.06858879327774048,-0.10899962717667222,-0.3266153335571289
611,731000000,imu2_frame,-0.011802256436586042,-0.026769920554183136,-0.34511655887170795,0.9381037463357019,-0.005859375,-0.0078125,-0.021484375,0.04277580976486206,-0.07745135575532913,-0.3250761032104492
611,751000000,imu2_frame,-0.013581345337956798,-0.027242053338388503,-0.3453185281540873,0.9379917546024669,0.005859375,0.017578125,-0.02734375,0.022122442722320557,-0.04815005511045456,-0.32369422912597656
611,771000000,imu2_frame,-0.015309584343359342,-0.02800578722456374,-0.3454775296280573,0.9378840914693355,0.017578125,-0.00390625,-0.0234375,-0.003534853458404541,-0.02173713594675064,-0.32189369201660156
611,791000000,imu2_frame,-0.017168469406056906,-0.028594939945351398,-0.3453217936714795,0.9378914819334311,0.01171875,-0.0078125,0.009765625,-0.02684086561203003,0.008452631533145905,-0.32006168365478516
611,811000000,imu2_frame,-0.015580969908361848,-0.027301076615563392,-0.34572558498883954,0.9378089914670635,-0.017578125,0.017578125,-0.037109375,0.00751572847366333,-0.012158028781414032,-0.3224916458129883
611,831000000,imu2_frame,-0.017195668581144494,-0.028706000157556002,-0.3460133730448427,0.9376326680588365,-0.005859375,-0.013671875,-0.03515625,-0.029147624969482422,0.007726490497589111,-0.3199186325073242
611,851000000,imu2_frame,-0.015874200111132337,-0.02741284323046204,-0.3463795590929896,0.9375594630952213,-0.005859375,-0.013671875,-0.03515625,0.0034159421920776367,-0.00796584039926529,-0.3221912384033203
611,871000000,imu2_frame,-0.017402461636406973,-0.02871970243466228,-0.3461064931217918,0.9375940637823987,-0.009765625,0.00390625,0.025390625,-0.03080737590789795,0.01135854423046112,-0.31976318359375
611,891000000,imu2_frame,-0.015723892031200573,-0.02780295377503552,-0.3462413504568379,0.9376015583469341,0.005859375,-0.015625,-0.009765625,-0.002696096897125244,-0.013273753225803375,-0.32186412811279297
611,911000000,imu2_frame,-0.017434257432759188,-0.02874134189941199,-0.34658913031026556,0.937414506333438,0.0078125,-0.001953125,-0.04296875,-0.031482696533203125,0.011462554335594177,-0.3197174072265625
611,931000000,imu2_frame,-0.01570586111371968,-0.02766846501271789,-0.34703591498802816,0.9373120375194903,0.0078125,-0.001953125,-0.04296875,-0.00019669532775878906,-0.013212598860263824,-0.3220205307006836
611,951000000,imu2_frame,-0.017575957276997577,-0.0287632004264672,-0.3469132474584019,0.9372912902427344,-0.009765625,-0.013671875,0.0078125,-0.03288543224334717,0.013686373829841614,-0.3195962905883789
611,971000000,imu2_frame,-0.01576898447229601,-0.02759501271042181,-0.34731301865448755,0.9372105000880708,0.001953125,0.017578125,-0.037109375,0.0006903409957885742,-0.01173856109380722,-0.32206058502197266
611,991000000,imu2_frame,-0.017302969367034307,-0.028921689761882655,-0.347825977911751,0.9369531643588889,0.017578125,-0.015625,-0.060546875,-0.034055471420288086,0.006979763507843018,-0.31960391998291016
612,11000000,imu2_frame,-0.016355182312744607,-0.02726459150939946,-0.34809323981825535,0.9369206190783578,-0.015625,-0.005859375,-0.025390625,0.0026688575744628906,0.0007352232933044434,-0.32204723358154297
612,31000000,imu2_frame,-0.01712994007657103,-0.02896390061834828,-0.3483834569708106,0.9367478980616989,0.01171875,0.01171875,-0.033203125,-0.033722519874572754,0.003139384090900421,-0.3196725845336914
612,51000000,imu2_frame,-0.016560743140457218,-0.027010643466727515,-0.3488874711045884,0.9366289016640443,-0.005859375,0.00390625,-0.052734375,0.005818009376525879,0.005714036524295807,-0.32218360900878906
612,71000000,imu2_frame,-0.017120465205645384,-0.02884851667256593,-0.3493770978725247,0.936381490760634,-0.00390625,0.0078125,-0.052734375,-0.031671226024627686,0.0030687451362609863,-0.3198089599609375
612,91000000,imu2_frame,-0.016669978398139766,-0.027096058598251902,-0.349034033250657,0.9365698901104097,-0.00390625,-0.01953125,0.037109375,0.0034926533699035645,0.007034599781036377,-0.3220233917236328
612,111000000,imu2_frame,-0.017292822547512094,-0.028792526581552222,-0.3497184376640571,0.9362526171174113,-0.02734375,0.017578125,-0.072265625,-0.031866371631622314,0.006370216608047485,-0.31975650787353516
612,131000000,imu2_frame,-0.015981835883452325,-0.027208094383676575,-0.3501581396726218,0.9361589489733098,0.021484375,0.0,-0.044921875,0.006003975868225098,-0.007054060697555542,-0.3223428726196289
612,151000000,imu2_frame,-0.017348975209304736,-0.02861238265933752,-0.350765753379958,0.9358652311489796,-0.005859375,0.005859375,-0.068359375,-0.02909177541732788,0.007912203669548035,-0.31992053985595703
612,171000000,imu2_frame,-0.01587439522636219,-0.027320338329990323,-0.3516982865410285,0.9355799901311681,0.001953125,-0.005859375,-0.095703125,0.004516661167144775,-0.010790541768074036,-0.32229042053222656
612,191000000,imu2_frame,-0.017195259457832544,-0.028629954091840604,-0.3518885010006965,0.9354459533529235,0.021484375,0.00390625,-0.025390625,-0.028502047061920166,0.004210449755191803,-0.3200044631958008
612,211000000,imu2_frame,-0.016394780380848656,-0.026804632259112744,-0.3521769013021673,0.9354058761066881,0.0,0.0,-0.029296875,0.010308325290679932,0.001964971423149109,-0.3225078582763672
612,231000000,imu2_frame,-0.01740500350316032,-0.028620524365214783,-0.3530614745288655,0.9350002816264915,-0.021484375,-0.005859375,-0.095703125,-0.029922127723693848,0.007302731275558472,-0.3198738098144531
612,251000000,imu2_frame,-0.016063132887246267,-0.02715449064575796,-0.3534228596005021,0.9349314903838782,0.001953125,-0.001953125,-0.03515625,0.006054818630218506,-0.007317766547203064,-0.32234954833984375
612,271000000,imu2_frame,-0.017264518279760933,-0.028571162044230554,-0.35415271894757294,0.9345916096189029,0.01171875,0.009765625,-0.08203125,-0.0281904935836792,0.004328444600105286,-0.3200235366821289
612,291000000,imu2_frame,-0.01666877202116877,-0.02675511149056567,-0.3546118406899142,0.9344820803476891,-0.0234375,-0.0078125,-0.046875,0.009017109870910645,0.005741305649280548,-0.32238292694091797
612,311000000,imu2_frame,-0.017290878100103744,-0.028717120160331604,-0.35542564974644403,0.9341032919578768,-0.00390625,-0.005859375,-0.087890625,-0.031195402145385742,0.0029199495911598206,-0.3198423385620117
612,331000000,imu2_frame,-0.017013783753833906,-0.026716414114882445,-0.35584095556444423,0.9340096245340318,-0.029296875,-0.001953125,-0.04296875,0.007170498371124268,0.01151265949010849,-0.32219600677490234
612,351000000,imu2_frame,-0.0171614072584466,-0.02874561451847231,-0.35639269842924043,0.9337362691109249,0.00390625,-0.001953125,-0.05859375,-0.030934453010559082,-0.0003084912896156311,-0.3198976516723633
612,371000000,imu2_frame,-0.01728596223260135,-0.026469801846300565,-0.356953780903547,0.9335869233223938,-0.01953125,0.0234375,-0.060546875,0.009622693061828613,0.017478585243225098,-0.32227039337158203
612,391000000,imu2_frame,-0.016814334177285277,-0.028606266621188686,-0.3574521167592387,0.933341815146258,0.037109375,0.0,-0.052734375,-0.02610093355178833,-0.006394535303115845,-0.3202838897705078
612,411000000,imu2_frame,-0.018213638131871553,-0.026997471792134835,-0.3576231515915817,0.9332979595759002,-0.01171875,0.0078125,-0.0234375,-0.006565272808074951,0.0302698016166687,-0.3210744857788086
612,431000000,imu2_frame,-0.016794555547267977,-0.028579977801827992,-0.3580905614462928,0.9330982143246741,0.01171875,-0.001953125,-0.044921875,-0.025556862354278564,-0.007008284330368042,-0.3203268051147461
612,451000000,imu2_frame,-0.018410613043577,-0.027053545130544785,-0.3582434535676101,0.9330545444930757,-0.0234375,0.00390625,-0.021484375,-0.009059667587280273,0.03305564820766449,-0.3208742141723633
612,471000000,imu2_frame,-0.016873605945692188,-0.028509625145805587,-0.35898871254809167,0.9327537654491129,0.0078125,-0.005859375,-0.07421875,-0.024931252002716064,-0.005688086152076721,-0.32035350799560547
612,491000000,imu2_frame,-0.018428156287120835,-0.02715883534350783,-0.3593725703391991,0.9326168325772588,-0.01171875,-0.009765625,-0.046875,-0.011277198791503906,0.03188121318817139,-0.32075023651123047
612,511000000,imu2_frame,-0.01679721757303899,-0.028399949104474922,-0.36046884233732723,0.9321874865479876,0.00390625,0.0078125,-0.111328125,-0.02256721258163452,-0.0073188841342926025,-0.320526123046875
612,531000000,imu2_frame,-0.018757515147333093,-0.027282919310249,-0.36090583241715535,0.9320143658048883,-0.02734375,0.001953125,-0.052734375,-0.016093671321868896,0.035975173115730286,-0.32037925720214844
612,551000000,imu2_frame,-0.0171438519344595,-0.028255549783085757,-0.3630662383649467,0.9311770072369874,-0.01953125,-0.001953125,-0.224609375,-0.02269083261489868,-0.0017583966255187988,-0.32045459747314453
612,571000000,imu2_frame,-0.01871446966581115,-0.02695164061709871,-0.363919845971691,0.9308521490554313,-0.0078125,0.0,-0.09765625,-0.010245084762573242,0.03551502525806427,-0.32076168060302734
612,591000000,imu2_frame,-0.01756829039202271,-0.028190041406241918,-0.3648598983554331,0.9304697369126408,-0.041015625,-0.009765625,-0.09375,-0.024736881256103516,0.0052008479833602905,-0.3202400207519531
612,611000000,imu2_frame,-0.01625702591613393,-0.026598217113566257,-0.3657487256973705,0.9301914392239329,-0.00390625,0.0078125,-0.091796875,0.013428866863250732,-0.007846087217330933,-0.3228111267089844
612,631000000,imu2_frame,-0.017484012285661373,-0.02819444242891676,-0.3665861122881397,0.9297924526516576,0.005859375,-0.00390625,-0.09375,-0.024432063102722168,0.0024536997079849243,-0.32029247283935547
612,651000000,imu2_frame,-0.017551594903147855,-0.02610326148270656,-0.3674152456516973,0.9295249316285303,-0.015625,0.005859375,-0.08984375,0.012941539287567139,0.0181521475315094,-0.3224658966064453
612,671000000,imu2_frame,-0.017412236409742873,-0.028309976058131896,-0.36818524798501095,0.9291582117406136,0.013671875,-0.015625,-0.08203125,-0.0262109637260437,-0.0007794499397277832,-0.32021331787109375
612,691000000,imu2_frame,-0.018264044131665408,-0.026400440980804022,-0.36901110965297934,0.9288704120385429,-0.0234375,-0.005859375,-0.091796875,0.0021933317184448242,0.027905479073524475,-0.32166194915771484
612,711000000,imu2_frame,-0.01762010486224367,-0.02823842336803801,-0.37043212604719294,0.928262981779672,-0.021484375,-0.0078125,-0.1484375,-0.026687204837799072,0.00196230411529541,-0.32015132904052734
612,731000000,imu2_frame,-0.01711679000289481,-0.026415570443127676,-0.3710301472894633,0.9280872065385453,0.037109375,-0.001953125,-0.06640625,0.009922683238983154,0.005661360919475555,-0.32243919372558594
612,751000000,imu2_frame,-0.017504756814488643,-0.028452489884278183,-0.3717570114554584,0.9277288201527195,0.025390625,-0.00390625,-0.080078125,-0.029892325401306152,-0.0026003271341323853,-0.3199930191040039
612,771000000,imu2_frame,-0.018187382331513593,-0.02650752263857023,-0.37251444619259394,0.9274694376341022,-0.0234375,-0.0078125,-0.083984375,0.0002824068069458008,0.023427844047546387,-0.3216056823730469
612,791000000,imu2_frame,-0.017399045827809188,-0.02830216486128118,-0.373166292015479,0.9271694446927515,0.001953125,0.009765625,-0.06640625,-0.026568114757537842,-0.004394851624965668,-0.32023143768310547
612,811000000,imu2_frame,-0.018776542045045908,-0.026488763990875613,-0.37401788408134484,0.9268529598800341,-0.03515625,0.001953125,-0.095703125,-0.0039000511169433594,0.03324085474014282,-0.3211994171142578
612,831000000,imu2_frame,-0.017282995002760225,-0.028296348584971404,-0.3744735438584806,0.9266445811046233,0.03125,-0.01171875,-0.044921875,-0.02576768398284912,-0.007355980575084686,-0.3203163146972656
612,851000000,imu2_frame,-0.01875051744159434,-0.02695676948179318,-0.37555980318369475,0.9262162732901007,-0.0078125,-0.01171875,-0.123046875,-0.01241832971572876,0.028301939368247986,-0.32072925567626953
612,871000000,imu2_frame,-0.01730507671751949,-0.028042192584859918,-0.3770727205893964,0.9255972845369338,-0.01953125,0.01953125,-0.15625,-0.02163088321685791,-0.006874591112136841,-0.32058143615722656
612,891000000,imu2_frame,-0.01860533565724737,-0.02744893504152666,-0.3775887823790753,0.9253794404846343,0.0546875,-0.009765625,-0.064453125,-0.02055180072784424,0.020667269825935364,-0.3203125
612,911000000,imu2_frame,-0.017093254171847812,-0.028271288857387125,-0.37885215127043703,0.9248673431178769,-0.033203125,-0.015625,-0.12890625,-0.024405956268310547,-0.013622894883155823,-0.32047176361083984
612,931000000,imu2_frame,-0.01864052850814007,-0.02713978285392957,-0.3799467246131098,0.9244222246026695,0.005859375,0.005859375,-0.125,-0.01557093858718872,0.021986037492752075,-0.3206167221069336
612,951000000,imu2_frame,-0.017101863593911606,-0.028462172792918614,-0.38125004161700604,0.9238754443909377,-0.00390625,-0.0078125,-0.134765625,-0.028170228004455566,-0.01654656231403351,-0.3202543258666992
612,971000000,imu2_frame,-0.018399020932111425,-0.027148997746417006,-0.38189402805925815,0.9236240356783593,0.015625,0.00390625,-0.076171875,-0.01422053575515747,0.016233116388320923,-0.32078075408935547
612,991000000,imu2_frame,-0.017181907343980087,-0.028714128295098586,-0.382883719189116,0.9231903045830723,-0.0078125,-0.00390625,-0.1015625,-0.033480823040008545,-0.018125757575035095,-0.3199195861816406
613,11000000,imu2_frame,-0.018647578724940606,-0.027136698570627442,-0.3846261145386888,0.9224850239506632,-0.029296875,-0.009765625,-0.193359375,-0.016245782375335693,0.018948093056678772,-0.3206148147583008
613,31000000,imu2_frame,-0.01671273280045397,-0.028748118588662674,-0.38643368730104777,0.9217175465178412,0.04296875,-0.015625,-0.19140625,-0.030914902687072754,-0.029322750866413116,-0.3201913833618164
613,51000000,imu2_frame,-0.01789757346949967,-0.027771416214166497,-0.38785720735328977,0.9211271421521953,0.0390625,-0.013671875,-0.162109375,-0.02244514226913452,-0.0015771761536598206,-0.3204689025878906
613,71000000,imu2_frame,-0.019489777412590885,-0.02640071436560173,-0.3886129035636137,0.9208165735048707,-0.01171875,0.005859375,-0.087890625,-0.009964048862457275,0.03697483241558075,-0.3207569122314453
613,91000000,imu2_frame,-0.017967204347982844,-0.027762344107956163,-0.38893891835955935,0.9206698374568622,0.001953125,-0.00390625,-0.029296875,-0.0229414701461792,-0.0010022670030593872,-0.32042980194091797
613,111000000,imu2_frame,-0.019353513888780878,-0.026159356741596557,-0.38897939735627834,0.9206715798738273,-0.0078125,0.01171875,-0.009765625,-0.004649341106414795,0.036113396286964417,-0.3211088180541992
613,131000000,imu2_frame,-0.017973237839591902,-0.027734800920828195,-0.3889384995618096,0.9206707267519978,0.009765625,-0.001953125,0.009765625,-0.022491812705993652,-0.0006837397813796997,-0.32045555114746094
613,151000000,imu2_frame,-0.019380157656557474,-0.026427775539958134,-0.38846593261887674,0.9208801232319889,0.0078125,-0.005859375,0.044921875,-0.009595632553100586,0.03489618003368378,-0.3208131790161133
613,171000000,imu2_frame,-0.01775997093196386,-0.027783540266848178,-0.3885557538649742,0.9208349930694193,0.013671875,0.005859375,-0.00390625,-0.02170407772064209,-0.004627436399459839,-0.32055187225341797
613,191000000,imu2_frame,-0.019607134105483523,-0.02689321836207477,-0.3884922192387201,0.9208507537539803,-0.005859375,-0.01171875,0.0,-0.019691944122314453,0.03542253375053406,-0.32015419006347656
613,211000000,imu2_frame,-0.018072868849827887,-0.027652099208268128,-0.3881137637483161,0.9210192393267523,-0.02734375,-0.00390625,0.048828125,-0.021658360958099365,0.0023069530725479126,-0.32047557830810547
613,231000000,imu2_frame,-0.01913529296110786,-0.026029001301740615,-0.38811661900513417,0.9210438761028434,0.01171875,0.0078125,-0.005859375,-0.0005109310150146484,0.033755555748939514,-0.32140541076660156
613,251000000,imu2_frame,-0.018109496190938875,-0.027676958651298166,-0.387804521852774,0.9211480255301348,-0.005859375,0.0,0.0390625,-0.02234363555908203,0.00299062579870224,-0.3204231262207031
613,271000000,imu2_frame,-0.018380536795296745,-0.02573851251267758,-0.3877860684770612,0.9212066271667043,-0.005859375,-0.0078125,0.0,0.010481595993041992,0.022595718502998352,-0.3222532272338867
613,291000000,imu2_frame,-0.018003281438679346,-0.027718026155175074,-0.3881302346890491,0.921011679515371,0.0078125,0.00390625,-0.03515625,-0.022318482398986816,0.0005423352122306824,-0.3204526901245117
613,311000000,imu2_frame,-0.019465043611296234,-0.026326128678864934,-0.3880589918531033,0.9210528029749148,-0.0078125,-0.013671875,0.001953125,-0.008344650268554688,0.037471190094947815,-0.32085323333740234
613,331000000,imu2_frame,-0.017493523457364716,-0.027723008448848972,-0.3884837400026028,0.9208723012411558,0.046875,0.017578125,-0.041015625,-0.018586397171020508,-0.00891188532114029,-0.32080078125
613,351000000,imu2_frame,-0.019510373340075788,-0.02715695929286381,-0.38869182317233175,0.92076083294907,-0.01171875,0.0078125,-0.029296875,-0.02373284101486206,0.0315377414226532,-0.3199491500854492
613,371000000,imu2_frame,-0.017802192999256762,-0.027500113178322735,-0.38907433721474555,0.9206236939273846,-0.029296875,0.013671875,-0.033203125,-0.016990363597869873,-0.0020670071244239807,-0.3208293914794922
613,391000000,imu2_frame,-0.019818998114963956,-0.028159463329467522,-0.38909399656477806,0.9205542427124888,0.0078125,-0.03125,-0.009765625,-0.0441630482673645,0.029174163937568665,-0.31862926483154297
613,411000000,imu2_frame,-0.018061233253317762,-0.027239868051255767,-0.38939485822513265,0.9204908613504796,-0.021484375,0.017578125,-0.025390625,-0.014319896697998047,0.004356265068054199,-0.3209257125854492
613,431000000,imu2_frame,-0.018680257810979622,-0.02914098333415209,-0.3897088335859042,0.9202873877672931,0.0,0.0,-0.03515625,-0.05323606729507446,0.0007706284523010254,-0.3183860778808594
613,451000000,imu2_frame,-0.01823685744303968,-0.027281865578999864,-0.39042130909949624,0.9200512584862689,-0.015625,-0.009765625,-0.076171875,-0.01654374599456787,0.006492547690868378,-0.3207569122314453
613,471000000,imu2_frame,-0.017726237062353756,-0.029235853786730718,-0.3908715164291759,0.919810036375624,0.015625,0.009765625,-0.046875,-0.04780542850494385,-0.01794377714395523,-0.3189573287963867
613,491000000,imu2_frame,-0.018166450465628446,-0.02729290874092278,-0.39111117994818945,0.9197592740111264,0.0078125,0.005859375,-0.029296875,-0.01629406213760376,0.004670247435569763,-0.32079505920410156
613,511000000,imu2_frame,-0.018615078732497722,-0.029301466265853997,-0.3913585468660523,0.9195832701356336,0.0,-0.005859375,-0.02734375,-0.055823445320129395,-0.002825498580932617,-0.3182497024536133
613,531000000,imu2_frame,-0.018494959194831472,-0.027241662085936886,-0.3915682489738343,0.9195597504929969,-0.033203125,-0.001953125,-0.021484375,-0.017943382263183594,0.010652698576450348,-0.3206138610839844
613,551000000,imu2_frame,-0.01716751177140055,-0.02866348542333465,-0.3919108774036916,0.9193962939427336,-0.0078125,-0.001953125,-0.03125,-0.033362746238708496,-0.0243375301361084,-0.31998538970947266
613,571000000,imu2_frame,-0.01836388993574295,-0.027307932351051493,-0.39176252418708013,0.9194776609682836,0.01953125,-0.00390625,0.009765625,-0.018156766891479492,0.0076562389731407166,-0.32063770294189453
613,591000000,imu2_frame,-0.017251258486433673,-0.029117324325640702,-0.3919824386858325,0.9193499569079541,0.0078125,-0.009765625,-0.01953125,-0.04215818643569946,-0.026365548372268677,-0.31941699981689453
613,611000000,imu2_frame,-0.018189264886879906,-0.02737651671326102,-0.39209967702205434,0.9193353687608913,0.0078125,0.0078125,-0.017578125,-0.01809626817703247,0.0037615373730659485,-0.32068920135498047
613,631000000,imu2_frame,-0.01954698792309257,-0.029033665480065658,-0.3922222050477079,0.9192043860858367,-0.0546875,-0.005859375,-0.013671875,-0.05825382471084595,0.01533953845500946,-0.31786060333251953
613,651000000,imu2_frame,-0.018043937093614026,-0.027516604581138592,-0.39243093715376237,0.9191926959952992,0.01953125,0.0078125,-0.01953125,-0.019540071487426758,-0.0001522451639175415,-0.32064151763916016
613,671000000,imu2_frame,-0.019722108171770385,-0.027444116778727438,-0.3925530474330207,0.9191082438181833,0.033203125,0.0,-0.021484375,-0.03111189603805542,0.030458390712738037,-0.31948089599609375
613,691000000,imu2_frame,-0.017938238621049207,-0.02744080589283273,-0.39293004362824546,0.9189837879861816,-0.0234375,-0.001953125,-0.033203125,-0.017430126667022705,-0.0018109306693077087,-0.3207979202270508
613,711000000,imu2_frame,-0.019874145506434494,-0.02765906174526249,-0.3930288167838419,0.9188951756436933,0.001953125,0.005859375,-0.017578125,-0.0362095832824707,0.031200453639030457,-0.31913185119628906
613,731000000,imu2_frame,-0.018326783665500637,-0.02727308699571946,-0.3931411813451532,0.9188908092133359,-0.046875,-0.001953125,-0.00390625,-0.01742774248123169,0.006311036646366119,-0.32070159912109375
613,751000000,imu2_frame,-0.01794659059217968,-0.02912207989978141,-0.3933509505816998,0.918751791304322,-0.01171875,0.005859375,-0.01953125,-0.04771077632904053,-0.014895312488079071,-0.31893253326416016
613,771000000,imu2_frame,-0.01785362013989703,-0.027313334596446255,-0.39343876115604154,0.9187715555137318,0.05078125,0.005859375,-0.013671875,-0.01455467939376831,-0.002697564661502838,-0.32099342346191406
613,791000000,imu2_frame,-0.020066684416709352,-0.027930878508059333,-0.3935873752048017,0.9186436590330784,-0.03515625,-0.005859375,-0.021484375,-0.042652904987335205,0.032166942954063416,-0.31868553161621094
613,811000000,imu2_frame,-0.017971687110126314,-0.027496481864670727,-0.39358900053492935,0.9186994397545897,0.017578125,0.0,0.005859375,-0.018765926361083984,-0.0020917803049087524,-0.32071399688720703
613,831000000,imu2_frame,-0.020147837715978837,-0.02728420834203039,-0.39363535690212903,0.9186407580806836,-0.01953125,-0.001953125,-0.01171875,-0.03168255090713501,0.03857266902923584,-0.3193197250366211
613,851000000,imu2_frame,-0.01785231126186828,-0.027554196662738832,-0.394143299947204,0.9184623674030465,0.029296875,0.005859375,-0.048828125,-0.018949687480926514,-0.0050607845187187195,-0.3207359313964844
613,871000000,imu2_frame,-0.01988396813177552,-0.027272853609431696,-0.39466730414808676,0.9182039742365609,-0.00390625,-0.013671875,-0.064453125,-0.029616713523864746,0.0332019180059433,-0.3195381164550781
613,891000000,imu2_frame,-0.01789204152860414,-0.027436619612956924,-0.3947890606270544,0.9181877282796589,-0.001953125,0.005859375,-0.005859375,-0.0172232985496521,-0.003884032368659973,-0.3208341598510742
613,911000000,imu2_frame,-0.019890236191982137,-0.0275534530247102,-0.39493758758470926,0.9180792382160772,0.001953125,-0.005859375,-0.0234375,-0.03473907709121704,0.03095555305480957,-0.3192329406738281
613,931000000,imu2_frame,-0.017845430878304612,-0.027291596509920295,-0.39556091220255474,0.9178607051694665,-0.001953125,0.013671875,-0.060546875,-0.01435554027557373,-0.004127323627471924,-0.32102203369140625
613,951000000,imu2_frame,-0.019877271492555443,-0.027932934607809407,-0.39557196695263735,0.9177948922299736,-0.005859375,-0.013671875,-0.0078125,-0.04154038429260254,0.027336448431015015,-0.3188314437866211
613,971000000,imu2_frame,-0.017906865557785902,-0.027151080766126726,-0.39579500448692195,0.9177627566001596,0.0,0.017578125,-0.017578125,-0.012339532375335693,-0.002097092568874359,-0.32112884521484375
613,991000000,imu2_frame,-0.019565470054561322,-0.02832566312937264,-0.39611807330518506,0.917553988161358,0.0078125,-0.009765625,-0.041015625,-0.04625046253204346,0.01831147074699402,-0.31863975524902344
614,11000000,imu2_frame,-0.018244235681164175,-0.026968011964478032,-0.39678248418891016,0.91733501755682,-0.033203125,0.00390625,-0.06640625,-0.011792302131652832,0.0046984851360321045,-0.32108402252197266
614,31000000,imu2_frame,-0.018582243646908705,-0.029074376902403318,-0.3968883864091637,0.9172180708873514,0.033203125,-0.0078125,-0.013671875,-0.0521547794342041,-0.0056803226470947266,-0.31853294372558594
614,51000000,imu2_frame,-0.01832532622143381,-0.026956345250711666,-0.39719259082296776,0.9171562482286979,-0.00390625,0.013671875,-0.033203125,-0.012264728546142578,0.005962878465652466,-0.32103824615478516
614,71000000,imu2_frame,-0.019087460269323484,-0.02886889751660303,-0.3973997457560574,0.9169927468031923,-0.04296875,-0.01171875,-0.021484375,-0.05245375633239746,0.004599153995513916,-0.3183937072753906
614,91000000,imu2_frame,-0.017970491778910577,-0.027182190854997377,-0.3977484140497148,0.9169156935326624,0.029296875,0.0,-0.037109375,-0.0136260986328125,-0.00253179669380188,-0.32105159759521484
614,111000000,imu2_frame,-0.020126517550432422,-0.027852045409836726,-0.3978661594698077,0.9167997087731464,-0.0390625,0.001953125,-0.017578125,-0.042376935482025146,0.030792906880378723,-0.3187246322631836
614,131000000,imu2_frame,-0.017985702418976804,-0.027313334203436446,-0.3983349553551352,0.9166568385308703,0.017578125,0.009765625,-0.044921875,-0.016162753105163574,-0.0036829710006713867,-0.32089996337890625
614,151000000,imu2_frame,-0.02005294050309757,-0.02759918076572723,-0.398291149362187,0.9166244187986637,-0.0078125,-0.00390625,-0.001953125,-0.03734540939331055,0.0311429500579834,-0.31905651092529297
614,171000000,imu2_frame,-0.018302942827796435,-0.027103230081481904,-0.39874133150993585,0.9164800967553394,-0.03125,0.01171875,-0.041015625,-0.014920055866241455,0.0033587589859962463,-0.32089900970458984
614,191000000,imu2_frame,-0.01921327850844577,-0.02892145663018074,-0.39913051481264894,0.9162364495154814,0.00390625,-0.00390625,-0.044921875,-0.05459564924240112,0.005183599889278412,-0.3182401657104492
614,211000000,imu2_frame,-0.01814792185718168,-0.027124671336761868,-0.39923441120007497,0.9162678593352861,0.017578125,0.0078125,-0.009765625,-0.014158427715301514,7.778406143188477e-05,-0.3209867477416992
614,231000000,imu2_frame,-0.019505229469551043,-0.0284693202056603,-0.39930647824128795,0.9161677686236882,0.02734375,-0.00390625,-0.013671875,-0.04880475997924805,0.013815835118293762,-0.3185262680053711
614,251000000,imu2_frame,-0.018438168917104578,-0.026928330631995106,-0.3995296245454062,0.9161391695844934,-0.03125,-0.00390625,-0.01953125,-0.012945473194122314,0.006606690585613251,-0.3209867477416992
614,271000000,imu2_frame,-0.018498762179398536,-0.029020372692973844,-0.39949636010219264,0.9160885721542923,0.01171875,-0.005859375,0.00390625,-0.05084121227264404,-0.008645929396152496,-0.31865501403808594
614,291000000,imu2_frame,-0.0184401817693267,-0.026800454107429175,-0.39970691826343946,0.9160655406947115,-0.0078125,0.021484375,-0.0234375,-0.0106964111328125,0.007521979510784149,-0.3211193084716797
614,311000000,imu2_frame,-0.01837812240492867,-0.02887780975117858,-0.3999238929903282,0.9159089455487944,0.01953125,0.0,-0.0234375,-0.04739844799041748,-0.009998820722103119,-0.31890296936035156
614,331000000,imu2_frame,-0.018675467920082876,-0.02683626429360846,-0.40003797347678594,0.915915204368459,-0.017578125,-0.001953125,-0.013671875,-0.013218045234680176,0.01122681051492691,-0.3209114074707031
614,351000000,imu2_frame,-0.0178100892792143,-0.02903192259955578,-0.40007768429791596,0.915848128630974,0.02734375,-0.0234375,-0.001953125,-0.04573613405227661,-0.021481722593307495,-0.31913089752197266
614,371000000,imu2_frame,-0.01854839757833627,-0.0271331807271403,-0.4002053609492848,0.9158359113500392,-0.001953125,0.00390625,-0.017578125,-0.017558813095092773,0.0065125152468681335,-0.3206901550292969
614,391000000,imu2_frame,-0.018134883171026777,-0.029187484952926116,-0.40082375138181503,0.9155105335618509,-0.009765625,-0.017578125,-0.064453125,-0.05113309621810913,-0.01742909848690033,-0.3187255859375
614,411000000,imu2_frame,-0.018596677236970047,-0.02698790643326373,-0.40118400148598804,0.915410953317571,-0.017578125,0.01953125,-0.041015625,-0.015467464923858643,0.007842503488063812,-0.32080936431884766
614,431000000,imu2_frame,-0.01814107578465785,-0.02912517770662136,-0.4015805046717838,0.9151807054677717,0.005859375,-0.017578125,-0.041015625,-0.05014711618423462,-0.01737786829471588,-0.31879234313964844
614,451000000,imu2_frame,-0.018522128183924066,-0.02682970970520396,-0.40247711786490636,0.9148493138434498,-0.013671875,0.033203125,-0.099609375,-0.012225747108459473,0.006867595016956329,-0.3210296630859375
614,471000000,imu2_frame,-0.018704969523200082,-0.028830836753127316,-0.4028060484296629,0.9146399260450698,-0.00390625,-0.001953125,-0.03515625,-0.049451351165771484,-0.005868189036846161,-0.31871986389160156
614,491000000,imu2_frame,-0.01870216066967995,-0.026728346249945852,-0.40354015961885764,0.9143802077187669,-0.0234375,0.00390625,-0.080078125,-0.011973142623901367,0.01015770435333252,-0.32100486755371094
614,511000000,imu2_frame,-0.018097108330088346,-0.029075546655233837,-0.4042294622188282,0.9140162192932165,0.03125,-0.02734375,-0.07421875,-0.04918926954269409,-0.01969229429960251,-0.3188800811767578
614,531000000,imu2_frame,-0.01853805411257933,-0.027071734468763292,-0.4047197370002187,0.9138519553106212,0.00390625,0.01171875,-0.056640625,-0.016963839530944824,0.003700174391269684,-0.32076358795166016
614,551000000,imu2_frame,-0.019765648056016372,-0.028905466217298153,-0.4053850916538899,0.9134750793778961,-0.033203125,-0.017578125,-0.07421875,-0.05947524309158325,0.010600365698337555,-0.3178377151489258
614,571000000,imu2_frame,-0.018433634741247925,-0.027308787622453902,-0.4062277822162057,0.913177649849426,0.01953125,0.00390625,-0.08984375,-0.02055603265762329,-0.0010883510112762451,-0.3205862045288086
614,591000000,imu2_frame,-0.020460413723908527,-0.02633718927830883,-0.4068857517950833,0.9128700394455472,-0.02734375,0.015625,-0.078125,-0.01941096782684326,0.042342886328697205,-0.3200654983520508
614,611000000,imu2_frame,-0.01872404474728781,-0.027359732489501184,-0.40707172804337327,0.9127943160505472,0.0,-0.015625,-0.013671875,-0.02387481927871704,0.00309918075799942,-0.32032108306884766
614,631000000,imu2_frame,-0.0178475991402822,-0.025799121744885984,-0.40758686202006883,0.9126274258593995,0.060546875,-0.015625,-0.05859375,0.010848402976989746,-0.00043880194425582886,-0.3225698471069336
614,651000000,imu2_frame,-0.01918357289035104,-0.02720303542067628,-0.4084677796973141,0.9121655871299951,-0.041015625,0.015625,-0.09765625,-0.024924099445343018,0.011566944420337677,-0.3201475143432617
614,671000000,imu2_frame,-0.017046965695227703,-0.02716676225324922,-0.4090249354330157,0.9119594125745282,0.015625,-0.00390625,-0.0546875,-0.007294714450836182,-0.02660408616065979,-0.3216991424560547
614,691000000,imu2_frame,-0.019126385563503844,-0.027124719793382695,-0.4092658889155428,0.9118113089458681,-0.009765625,0.0,-0.033203125,-0.023181676864624023,0.010616987943649292,-0.32027435302734375
614,711000000,imu2_frame,-0.01696829278503747,-0.027381956140755156,-0.4097709247137196,0.9116194901257488,0.017578125,-0.001953125,-0.048828125,-0.010567307472229004,-0.030239082872867584,-0.32152271270751953
614,731000000,imu2_frame,-0.018997901592151513,-0.027121993318597947,-0.409652882141439,0.9116402762969248,-0.00390625,-0.001953125,0.005859375,-0.022158503532409668,0.008080147206783295,-0.3203725814819336
614,751000000,imu2_frame,-0.017241603300066435,-0.027165296743245387,-0.4100478574200262,0.911496312879948,-0.029296875,0.005859375,-0.03515625,-0.008923590183258057,-0.023821964859962463,-0.32157039642333984
614,771000000,imu2_frame,-0.019332844932003927,-0.027088084744576968,-0.40982558403260916,0.9115566177939999,-0.009765625,0.0,0.017578125,-0.02425706386566162,0.014197319746017456,-0.3201570510864258
614,791000000,imu2_frame,-0.01714662020671546,-0.02762789254668675,-0.41009146567447846,0.9114645811823263,0.03125,-0.0234375,-0.0234375,-0.01640188694000244,-0.029256321489810944,-0.3211393356323242
614,811000000,imu2_frame,-0.018921712617596995,-0.026947385811533817,-0.4102227900184688,0.9113907338452617,0.0078125,0.015625,-0.021484375,-0.018516361713409424,0.007728174328804016,-0.3206138610839844
614,831000000,imu2_frame,-0.01769544804180972,-0.0285363164185071,-0.41026984521876814,0.911345820129785,0.00390625,0.005859375,0.0,-0.03698146343231201,-0.02690078318119049,-0.31976795196533203
614,851000000,imu2_frame,-0.018889063773670806,-0.027101370895795594,-0.41007390223577184,0.9114538461548394,0.009765625,-0.01171875,0.015625,-0.02097642421722412,0.006014004349708557,-0.32047462463378906
614,871000000,imu2_frame,-0.01710111214926363,-0.02758916888450891,-0.40998454334218715,0.9115147085725049,-0.015625,0.009765625,0.017578125,-0.015338420867919922,-0.029682286083698273,-0.3212118148803711
614,891000000,imu2_frame,-0.018918623634682073,-0.02714530915733502,-0.40987966801006875,0.9115392891271762,0.013671875,-0.001953125,0.00390625,-0.021969377994537354,0.006323039531707764,-0.3204069137573242
614,911000000,imu2_frame,-0.01710463693161788,-0.027028373677578828,-0.41000201111784623,0.9115235867991044,-0.01953125,-0.001953125,-0.005859375,-0.005385339260101318,-0.02513149380683899,-0.321807861328125
614,931000000,imu2_frame,-0.019042957538270892,-0.027206458446143115,-0.4096869613843107,0.9116215048246199,0.0078125,-0.001953125,0.02734375,-0.02402716875076294,0.0081816166639328,-0.3202495574951172
614,951000000,imu2_frame,-0.01686993344695689,-0.026676006597627287,-0.41003082720815526,0.9115253791071833,0.015625,0.017578125,-0.03125,0.0027634501457214355,-0.026503801345825195,-0.32233333587646484
614,971000000,imu2_frame,-0.018969579912685507,-0.027137681175594893,-0.40961788840356206,0.9116561231068188,-0.013671875,-0.005859375,0.0390625,-0.022206604480743408,0.007474251091480255,-0.3203763961791992
614,991000000,imu2_frame,-0.017058414040817226,-0.027379633248963392,-0.4092696946384265,0.9118430145831756,0.0,-0.017578125,0.044921875,-0.011200368404388428,-0.02827172726392746,-0.32146549224853516
615,11000000,imu2_frame,-0.018978188092188198,-0.02701711266784827,-0.4091167753615864,0.9118845146824062,0.001953125,0.01171875,0.009765625,-0.020061731338500977,0.008942440152168274,-0.3204975128173828
615,31000000,imu2_frame,-0.01712490570132989,-0.028275778937081004,-0.408848280775539,0.9120034546190644,0.0234375,-0.01171875,0.03515625,-0.027652263641357422,-0.03396926075220108,-0.3204460144042969
615,51000000,imu2_frame,-0.018769769533384516,-0.027038857932612737,-0.4087558708716938,0.9120500172366024,-0.00390625,0.009765625,0.00390625,-0.018737852573394775,0.005305051803588867,-0.32062816619873047
615,71000000,imu2_frame,-0.0186449910458407,-0.028958736037480486,-0.4088572570967178,0.9119481888985583,-0.02734375,-0.0078125,-0.0078125,-0.05194747447967529,-0.012353919446468353,-0.3186187744140625
615,91000000,imu2_frame,-0.01855224253497701,-0.027079574437498678,-0.40938793884670566,0.9117697222830188,0.021484375,-0.001953125,-0.060546875,-0.017806947231292725,0.0006654858589172363,-0.32074451446533203
615,111000000,imu2_frame,-0.02035481470930803,-0.027664527027626177,-0.40977572867944,0.911539471250544,0.00390625,0.009765625,-0.048828125,-0.0426861047744751,0.027809366583824158,-0.31874847412109375
615,131000000,imu2_frame,-0.01794558660206453,-0.027315179273397303,-0.41024449836228793,0.9113897566169179,0.056640625,-0.00390625,-0.046875,-0.017248868942260742,-0.012622691690921783,-0.3209266662597656
615,151000000,imu2_frame,-0.020109192250940735,-0.026698718906360493,-0.41082859423399065,0.9110997008865149,-0.029296875,0.009765625,-0.0703125,-0.02369445562362671,0.03044663369655609,-0.31996822357177734
615,171000000,imu2_frame,-0.01820326092874711,-0.027383895446420035,-0.4111951808009157,0.9109540530937011,0.001953125,-0.005859375,-0.033203125,-0.02064436674118042,-0.009247168898582458,-0.32067108154296875
615,191000000,imu2_frame,-0.01996500309632044,-0.02663336644609775,-0.4113416840204043,0.9108732521214845,0.0078125,-0.001953125,-0.0234375,-0.021455049514770508,0.028048023581504822,-0.32014942169189453
615,211000000,imu2_frame,-0.017887903629580443,-0.027490104335749676,-0.4117738982295636,0.9106956537747268,0.0234375,0.001953125,-0.041015625,-0.020064175128936768,-0.01611761748790741,-0.32077980041503906
615,231000000,imu2_frame,-0.01996331335218378,-0.026484778773666107,-0.41246744674607416,0.9103684023449448,-0.033203125,0.013671875,-0.08203125,-0.018973886966705322,0.028432905673980713,-0.32030582427978516
615,251000000,imu2_frame,-0.018167999388352146,-0.02756708078965505,-0.4128107848464731,0.9102182352432852,0.0078125,-0.009765625,-0.03125,-0.02379995584487915,-0.012479372322559357,-0.3204994201660156
615,271000000,imu2_frame,-0.019876774617117777,-0.026352619808695965,-0.4134831617611146,0.9099132531181587,-0.01171875,0.00390625,-0.080078125,-0.016084492206573486,0.027258381247520447,-0.3205089569091797
615,291000000,imu2_frame,-0.0183485654725279,-0.027614033831237696,-0.4144133841353133,0.9094846575562366,-0.0078125,-0.01171875,-0.095703125,-0.026271045207977295,-0.010773733258247375,-0.32032012939453125
615,311000000,imu2_frame,-0.01960361879391017,-0.026358816375967632,-0.41524085849960524,0.9091182213342507,0.017578125,-0.0078125,-0.09765625,-0.014251112937927246,0.021139681339263916,-0.3207130432128906
615,331000000,imu2_frame,-0.017992211760845585,-0.02778763418837373,-0.4156646491888443,0.9089153024990179,0.017578125,0.0078125,-0.041015625,-0.026601314544677734,-0.01939508318901062,-0.3203849792480469
615,351000000,imu2_frame,-0.019350267226286074,-0.026527512384256755,-0.41626094892564947,0.9086521230066501,0.015625,0.009765625,-0.072265625,-0.015336692333221436,0.014562934637069702,-0.32073116302490234
615,371000000,imu2_frame,-0.01770948053691901,-0.02823289468174241,-0.41656612555140815,0.9084943263444691,0.041015625,0.00390625,-0.029296875,-0.03229475021362305,-0.028679318726062775,-0.3200950622558594
615,391000000,imu2_frame,-0.01902339070999885,-0.02702471295494463,-0.416859775473729,0.9083698052487158,0.017578125,-0.01171875,-0.0390625,-0.021581649780273438,0.0042902156710624695,-0.32045650482177734
615,411000000,imu2_frame,-0.017534822423408737,-0.02577574844767461,-0.4173878259454879,0.9081935606174715,-0.015625,0.001953125,-0.052734375,0.012631893157958984,-0.012290187180042267,-0.32280921936035156
615,431000000,imu2_frame,-0.019029752261963653,-0.02713412440779525,-0.4178402603466643,0.9079158136385236,0.005859375,-0.005859375,-0.0546875,-0.023699522018432617,0.0028226301074028015,-0.32033634185791016
615,451000000,imu2_frame,-0.018278567595644186,-0.02529994465793833,-0.4183708072793592,0.9077398715399552,0.0546875,0.009765625,-0.060546875,0.01488405466079712,0.004146933555603027,-0.32276344299316406
615,471000000,imu2_frame,-0.018959797427393663,-0.027209302157429862,-0.41858186143451215,0.9075733608010081,0.015625,-0.001953125,-0.025390625,-0.024554967880249023,0.0004457235336303711,-0.3203086853027344
615,491000000,imu2_frame,-0.019668387913469466,-0.025349370054777103,-0.4187820055637939,0.9075198046162285,-0.009765625,-0.009765625,-0.025390625,0.0025920867919921875,0.02811497449874878,-0.3216838836669922
615,511000000,imu2_frame,-0.019093444036599815,-0.027298005567814837,-0.419278362966338,0.9072463356967104,-0.01171875,-0.013671875,-0.05078125,-0.027307868003845215,0.0015972107648849487,-0.3201141357421875
615,531000000,imu2_frame,-0.01898387641461348,-0.02513993025518727,-0.4197048056461887,0.907113814502091,-0.017578125,0.01171875,-0.046875,0.011767804622650146,0.017082497477531433,-0.32240772247314453
615,551000000,imu2_frame,-0.019177722084312187,-0.026965971952401295,-0.4201462454589526,0.9068529008384241,-0.017578125,0.01171875,-0.046875,-0.022228121757507324,0.005208112299442291,-0.3204030990600586
615,571000000,imu2_frame,-0.01726669091190519,-0.026140910240423133,-0.42025553017492595,0.9068648209927136,0.001953125,0.009765625,-0.005859375,0.008048057556152344,-0.021943308413028717,-0.32262134552001953
615,591000000,imu2_frame,-0.019196651638724624,-0.02695247772647452,-0.42014940162083403,0.9068514392269114,-0.0078125,-0.005859375,0.005859375,-0.022144675254821777,0.005652226507663727,-0.3204030990600586
615,611000000,imu2_frame,-0.017184013972555676,-0.026575214730750092,-0.4201538074339783,0.9069009018214376,0.0078125,-0.001953125,0.005859375,0.0010439753532409668,-0.026911653578281403,-0.32222938537597656
615,631000000,imu2_frame,-0.019503459469318477,-0.02669003749147963,-0.42012321369556493,0.9068647872100576,-0.04296875,0.0078125,-0.001953125,-0.020009338855743408,0.013264968991279602,-0.3204460144042969
615,651000000,imu2_frame,-0.01770225831760957,-0.02783113270637204,-0.42030364482120763,0.9067838244326732,0.01171875,-0.01171875,-0.013671875,-0.025464177131652832,-0.028161272406578064,-0.3205404281616211
615,671000000,imu2_frame,-0.01902695780000601,-0.026896327781795536,-0.42003788449266877,0.9069083404730902,0.0390625,0.0,0.021484375,-0.0197446346282959,0.0031852126121520996,-0.3205890655517578
615,691000000,imu2_frame,-0.021114545170289135,-0.027831556402131093,-0.41994644734956305,0.9068762659861418,-0.04296875,-0.00390625,0.005859375,-0.05340850353240967,0.03255055844783783,-0.3179512023925781
615,711000000,imu2_frame,-0.0194721438845036,-0.026873994425260134,-0.42011608392488264,0.9068633304218411,-0.0234375,0.005859375,-0.01171875,-0.023010432720184326,0.011202476918697357,-0.32027721405029297
615,731000000,imu2_frame,-0.017392508333227998,-0.027321391493747075,-0.4198555020333749,0.9070128993752111,0.017578125,-0.01171875,0.03515625,-0.01385420560836792,-0.029146499931812286,-0.3213024139404297
615,751000000,imu2_frame,-0.01927704953947666,-0.026796595582972507,-0.42000387863289634,0.9069217605502354,0.001953125,0.009765625,-0.0234375,-0.02002394199371338,0.0084603950381279,-0.32050609588623047
615,771000000,imu2_frame,-0.017906153810606912,-0.027525405330447963,-0.42025723535363935,0.9068106626247957,-0.04296875,0.0234375,-0.01953125,-0.021718382835388184,-0.02200108766555786,-0.32072925567626953
615,791000000,imu2_frame,-0.01972001037717796,-0.026819304506762013,-0.42011826649336964,0.906858582280117,0.005859375,-0.01953125,0.0078125,-0.024074435234069824,0.01604233682155609,-0.3201456069946289
615,811000000,imu2_frame,-0.017315039541253675,-0.027036095446846486,-0.4205346693846017,0.9067082390682559,0.033203125,0.029296875,-0.0390625,-0.008228957653045654,-0.028640612959861755,-0.3216581344604492
615,831000000,imu2_frame,-0.019215200888185773,-0.027469644711113857,-0.420807323199137,0.9065304139499396,0.03125,-0.046875,-0.0390625,-0.0315394401550293,0.0012598931789398193,-0.3198394775390625
615,851000000,imu2_frame,-0.018602078123892637,-0.02508053712401456,-0.4217205225175929,0.9061880214583131,-0.001953125,0.048828125,-0.099609375,0.015674233436584473,0.00947505235671997,-0.32274627685546875
615,871000000,imu2_frame,-0.019133924382571544,-0.027076995538798544,-0.42222569771687485,0.9058842031064523,0.00390625,-0.005859375,-0.056640625,-0.0241013765335083,0.0020569786429405212,-0.32031917572021484
615,891000000,imu2_frame,-0.019204200918161007,-0.025105314279884248,-0.4228283364728818,0.9056583901988533,0.001953125,0.0,-0.068359375,0.010115742683410645,0.01919400691986084,-0.3222770690917969
615,911000000,imu2_frame,-0.01919968207561416,-0.02711136970550615,-0.42351557004984525,0.90527946390396,-0.005859375,-0.001953125,-0.07421875,-0.025416553020477295,0.002027183771133423,-0.3202333450317383
615,931000000,imu2_frame,-0.01901669285437602,-0.025124431179529998,-0.4242674359091013,0.9049885475396381,0.001953125,0.001953125,-0.083984375,0.011121094226837158,0.014760792255401611,-0.32239818572998047
615,951000000,imu2_frame,-0.019231736798751158,-0.027094003096120214,-0.4247155505907618,0.904716948212156,-0.001953125,0.001953125,-0.048828125,-0.025527656078338623,0.0018911585211753845,-0.32022666931152344
615,971000000,imu2_frame,-0.018969942817100887,-0.025261932256130146,-0.4251944075466761,0.9045505468680197,0.01953125,-0.0078125,-0.0546875,0.008948981761932373,0.012173280119895935,-0.3222980499267578
615,991000000,imu2_frame,-0.019033556074781473,-0.02738515772600057,-0.4262128477431916,0.9040079564351794,0.02734375,-0.001953125,-0.11328125,-0.029208838939666748,-0.005096018314361572,-0.3200654983520508
616,11000000,imu2_frame,-0.02008430153188708,-0.025334858434515887,-0.4271780698738072,0.90358932176015,-0.041015625,0.00390625,-0.109375,-0.0019047260284423828,0.029910802841186523,-0.32137489318847656
616,31000000,imu2_frame,-0.018815045261980398,-0.027191806266410445,-0.42751297870099114,0.9034042576753585,0.03125,0.00390625,-0.033203125,-0.02412933111190796,-0.008259415626525879,-0.3204336166381836
616,51000000,imu2_frame,-0.020381010356557667,-0.02577607861143946,-0.42807777360896787,0.9031443007240051,-0.01171875,0.0078125,-0.068359375,-0.012309551239013672,0.03083661198616028,-0.32069969177246094
616,71000000,imu2_frame,-0.018617858066180864,-0.027621441520803806,-0.42829138414028856,0.9030265342726844,0.046875,-0.03125,-0.01953125,-0.030147910118103027,-0.015889637172222137,-0.3201169967651367
616,91000000,imu2_frame,-0.01989666022850946,-0.025871457635462235,-0.42875894170746004,0.9028291978538724,-0.01171875,0.017578125,-0.056640625,-0.010045945644378662,0.0210207998752594,-0.3209848403930664
616,111000000,imu2_frame,-0.018768172817872193,-0.02753809365754152,-0.4287509515214792,0.9028078592126971,0.00390625,0.00390625,0.005859375,-0.02998584508895874,-0.01286613941192627,-0.3200979232788086
616,131000000,imu2_frame,-0.019837136445086275,-0.025981715203396465,-0.4286645816660845,0.9028721476032969,0.01171875,-0.001953125,0.00390625,-0.011478126049041748,0.019110828638076782,-0.32091808319091797
616,151000000,imu2_frame,-0.01876317590949747,-0.02766682433251856,-0.4287984692249308,0.9027814590760596,-0.001953125,-0.001953125,-0.009765625,-0.03221893310546875,-0.014068573713302612,-0.3199625015258789
616,171000000,imu2_frame,-0.019857096257168937,-0.025952235489178462,-0.4287726495252504,0.9028212404570711,-0.00390625,0.0,-0.001953125,-0.011141300201416016,0.01963554322719574,-0.32093334197998047
616,191000000,imu2_frame,-0.018817305268174715,-0.02759837202401039,-0.4287668344891203,0.9027974526582626,-0.005859375,0.0,0.005859375,-0.031461477279663086,-0.012516692280769348,-0.31999683380126953
616,211000000,imu2_frame,-0.01990144471961083,-0.02589234863809744,-0.42874111478620824,0.9028369594073755,-0.00390625,-0.001953125,-0.001953125,-0.010451912879943848,0.02094218134880066,-0.32096004486083984
616,231000000,imu2_frame,-0.018761896622589966,-0.02757926919871286,-0.42882119477496344,0.902773370263745,0.00390625,0.0,-0.00390625,-0.03066694736480713,-0.013372518122196198,-0.32005786895751953
616,251000000,imu2_frame,-0.01987193873631621,-0.025968111031253,-0.4287906261744105,0.9028119195963719,0.00390625,-0.001953125,-0.001953125,-0.011548101902008057,0.01975168287754059,-0.3209056854248047
616,271000000,imu2_frame,-0.018766243052537646,-0.0275829923926263,-0.4288739096605013,0.9027481244870452,-0.00390625,0.001953125,-0.00390625,-0.030774950981140137,-0.013364702463150024,-0.3200502395629883
616,291000000,imu2_frame,-0.019902678350573407,-0.02590682812953554,-0.42889876153106904,0.9027616363181675,-0.001953125,0.001953125,-0.0078125,-0.010740876197814941,0.02073347568511963,-0.32094383239746094
616,311000000,imu2_frame,-0.018823050561443417,-0.027551484421081806,-0.4289635859107066,0.902705295451613,-0.00390625,0.0,-0.001953125,-0.030705034732818604,-0.012162178754806519,-0.32004261016845703
616,331000000,imu2_frame,-0.019955478720106383,-0.025844745580366854,-0.4289199847246015,0.9027521668203211,-0.005859375,0.0,0.0,-0.010091602802276611,0.02217128872871399,-0.3209657669067383
616,351000000,imu2_frame,-0.01888783369117231,-0.027490237557077312,-0.42896778925879886,0.9027038120867378,-0.005859375,-0.001953125,0.0,-0.030168354511260986,-0.010508328676223755,-0.32006072998046875
616,371000000,imu2_frame,-0.019962831002981345,-0.025763743360350182,-0.42892471092471074,0.9027520740848849,-0.00390625,0.0,0.0,-0.008725762367248535,0.022977784276008606,-0.3210420608520508
616,391000000,imu2_frame,-0.018925947869449962,-0.027437461418321603,-0.429023668052848,0.9026780635745174,-0.00390625,0.0,-0.005859375,-0.029563605785369873,-0.009432733058929443,-0.32008934020996094
616,411000000,imu2_frame,-0.01997016864487992,-0.025717942106038817,-0.42906849362565674,0.9026848883170335,-0.001953125,0.0,-0.009765625,-0.008001208305358887,0.023392751812934875,-0.32108211517333984
616,431000000,imu2_frame,-0.018925837570200582,-0.027426722480929814,-0.42921848005577623,0.9025857765026158,0.0,0.0,-0.01171875,-0.029395580291748047,-0.009483203291893005,-0.3201017379760742
