timestamp_sec,timestamp_nsec,frame_id,orientation_x,orientation_y,orientation_z,orientation_w,angular_velocity_x,angular_velocity_y,angular_velocity_z,linear_acceleration_x,linear_acceleration_y,linear_acceleration_z
1367,736000000,imu2_frame,-0.005159109911430906,0.0045933887816026015,-0.00010937303544900029,0.9999761359162336,0.0,-0.001953125,-0.001953125,-6.922334432601929e-05,0.007103361189365387,-0.00102996826171875
1367,761000000,imu2_frame,-0.002657512104319601,0.0045965736510125005,-0.00012202752124317127,0.9999858970252381,0.0,-0.001953125,-0.001953125,-1.4007091522216797e-06,-0.04179295897483826,-0.00141143798828125
1367,786000000,imu2_frame,-0.005161612104339777,0.0045976885657084965,-0.0001335338067570041,0.999976100308932,0.0,0.0,0.0,1.2360513210296631e-05,0.007154420018196106,-0.0010290145874023438
1367,811000000,imu2_frame,-0.002660034178442765,0.004596580289879588,-0.00012203908272060836,0.9999858902875933,0.0,0.0,0.0,-1.2814998626708984e-06,-0.04174365848302841,-0.0014104843139648438
1367,836000000,imu2_frame,-0.005163810263194602,0.004576959513249909,-0.00013359906214538024,0.9999761840446354,0.0,0.0,0.0,-0.00039283186197280884,0.04625985026359558,0.0028743743896484375
1367,861000000,imu2_frame,-0.002662759864213372,0.004596559753463184,-0.00012205166408660613,0.9999858831262217,0.0,0.0,0.0,-1.691281795501709e-06,-0.0026278868317604065,0.0024957656860351562
1367,886000000,imu2_frame,-0.005166788050534836,0.004576926105093027,-0.00013361283596582688,0.999976168814177,0.0,0.0,0.0,-0.0003934800624847412,0.046318069100379944,0.0028753280639648438
1367,911000000,imu2_frame,-0.0026657796214990567,0.004596535844862897,-0.00012206560723917289,0.9999858751888568,0.0,0.0,0.0,-2.16066837310791e-06,-0.002568848431110382,0.0024957656860351562
1367,936000000,imu2_frame,-0.00516962695489311,0.0045768957488572575,-0.00013362596368959694,0.9999761542789674,0.0,0.0,0.0,-0.00039409101009368896,0.046373553574085236,0.00287628173828125
1367,961000000,imu2_frame,-0.0026820663307021092,0.004850841638463238,-0.00012082528764439754,0.9999846305103124,0.0,0.0,0.0,0.004968635737895966,-0.0413125678896904,-0.040424346923828125
1367,986000000,imu2_frame,-0.005171118355163343,0.004576730554642617,-0.00013363364102627479,0.9999761473227433,0.0,0.0,0.0,-0.000397317111492157,0.0073402151465415955,-0.040093421936035156
1368,11000000,imu2_frame,-0.0026837234614127607,0.004850663858103228,-0.00012083378976746604,0.9999846269256911,0.0,0.0,0.0,0.004965141415596008,-0.04128018766641617,-0.040424346923828125
1368,36000000,imu2_frame,-0.005170059422112768,0.0045527192953996945,-0.00013369295818523765,0.9999762623976541,0.0,0.0,0.0,-0.0008666664361953735,0.007319442927837372,-0.0010347366333007812
1368,61000000,imu2_frame,-0.0026873095107641694,0.004850240870014233,-0.00012085230406136888,0.999984619344626,0.0,0.0,0.0,0.0049569010734558105,-0.04121007025241852,-0.0013608932495117188
1368,86000000,imu2_frame,-0.005173639530998845,0.004552286926014409,-0.00013371148398872768,0.9999762458473628,0.0,0.0,0.0,-0.000875130295753479,0.007389433681964874,-0.0010347366333007812
1368,111000000,imu2_frame,-0.002691161005243545,0.004849798517284285,-0.00012087212557255189,0.9999846111299487,0.0,0.0,0.0,0.004948228597640991,-0.0411347895860672,-0.0013608932495117188
1368,136000000,imu2_frame,-0.0036493317211513812,0.002536680705065035,-0.00013174486405507442,0.9999901150872844,0.0,0.0,0.0,-0.040268734097480774,0.01665239781141281,0.0023298263549804688
1368,161000000,imu2_frame,-0.00269129201950611,0.004849484401810798,-0.00012087360265562025,0.9999846123005466,0.0,0.0,0.0,0.004942059516906738,-0.0020697489380836487,0.002544403076171875
1368,186000000,imu2_frame,-0.00364948204733551,0.0025363404694097166,-0.00013174650714658804,0.999990115401481,0.0,0.0,0.0,-0.04027538746595383,0.016655333340168,0.0023298263549804688
1368,211000000,imu2_frame,-0.0026914355680131004,0.004849135452613098,-0.00012087523822588207,0.9999846136061904,0.0,0.0,0.0,0.004935242235660553,-0.002066943794488907,0.002544403076171875
1368,236000000,imu2_frame,-0.005180593838207536,0.004575804315690365,-0.00013368032457546284,0.9999761025104144,0.0,0.0,0.0,-0.0004154518246650696,0.007525414228439331,-0.040091514587402344
1368,261000000,imu2_frame,-0.0026798696865403646,0.004615934538952089,-0.00012203061159090224,0.9999857481761053,0.0,0.0,0.0,0.00037697702646255493,-0.0022933967411518097,-0.03656196594238281
1368,286000000,imu2_frame,-0.0051826835957736045,0.004575769677153426,-0.00013369006160077242,0.9999760918389876,0.0,0.0,0.0,-0.0004161447286605835,0.04662875831127167,-0.036185264587402344
1368,311000000,imu2_frame,-0.0026819878830840103,0.00461590135840713,-0.00012204047447657952,0.9999857426492474,0.0,0.0,0.0,0.0003763064742088318,-0.002251993864774704,-0.036561012268066406
1368,336000000,imu2_frame,-0.005183742407205575,0.004575746425669179,-0.0001336950085866549,0.9999760864565453,0.0,0.0,0.0,-0.0004166066646575928,0.04664945602416992,-0.03618431091308594
1368,361000000,imu2_frame,-0.002697420000145315,0.004846821591413652,-0.00012091387914399999,0.9999846086943729,0.0,0.0,0.0,0.004890009760856628,-0.041012462228536606,-0.04042339324951172
1368,386000000,imu2_frame,-0.005186791432805639,0.004575413495865298,-0.00013371068367118064,0.9999760721674431,0.0,0.0,0.0,-0.00042313337326049805,0.007646538317203522,-0.04008960723876953
1368,411000000,imu2_frame,-0.00270076170189216,0.004846464459364177,-0.00012093102011933309,0.9999846014035225,0.0,0.0,0.0,0.004883028566837311,-0.04094713553786278,-0.04042339324951172
1368,436000000,imu2_frame,-0.0035933064999946833,0.0025067913632272503,-0.00013157647008272532,0.9999903933704017,0.0,0.0,0.0,-0.04085281118750572,0.01555720716714859,0.0023183822631835938
1368,461000000,imu2_frame,-0.0027010695830774725,0.00484565716554518,-0.00012093469277730654,0.9999846044837599,0.0,0.0,0.0,0.004867218434810638,-0.001878630369901657,0.0025453567504882812
1368,486000000,imu2_frame,-0.0035936314244436017,0.002505968673567718,-0.00013158026636276153,0.9999903942642778,0.0,0.0,0.0,-0.040868889540433884,0.01556355506181717,0.0023183822631835938
1368,511000000,imu2_frame,-0.0027013883634777573,0.004844818575762264,-0.00012093850629529354,0.999984607685416,0.0,0.0,0.0,0.004850827157497406,-0.0018724016845226288,0.0025453567504882812
1368,536000000,imu2_frame,-0.005188189112947993,0.004551245409835552,-0.00013377883707615249,0.9999761751972747,0.0,0.0,0.0,-0.0008955150842666626,0.007673837244510651,-0.0010318756103515625
1368,561000000,imu2_frame,-0.0027056863617426854,0.0048443040536607015,-0.00012096073683947086,0.9999845985554215,0.0,0.0,0.0,0.004840768873691559,-0.04085088148713112,-0.0013608932495117188
1368,586000000,imu2_frame,-0.005192463569280384,0.004550741093876946,-0.00013380090567191154,0.9999761553031632,0.0,0.0,0.0,-0.0009054169058799744,0.007757373154163361,-0.00102996826171875
1368,611000000,imu2_frame,-0.0027099061842610693,0.004843812546520888,-0.00012098248906243763,0.9999845895071202,0.0,0.0,0.0,0.004831172525882721,-0.04076838865876198,-0.0013599395751953125
1368,636000000,imu2_frame,-0.0036888168406167135,0.0025416631498620746,-0.00013196357697389794,0.999989957531756,0.0,0.0,0.0,-0.04017147049307823,0.01742422580718994,-0.036726951599121094
1368,661000000,imu2_frame,-0.002709359610250868,0.004845100444808908,-0.00012097634796129303,0.9999845847496376,0.0,0.0,0.0,0.004856303334236145,-0.0017165914177894592,-0.03651714324951172
1368,686000000,imu2_frame,-0.0036884610326662114,0.002542533597637903,-0.00013195949334899898,0.9999899566319691,0.0,0.0,0.0,-0.04015444591641426,0.01741727441549301,-0.036726951599121094
1368,711000000,imu2_frame,-0.0027089842265402672,0.004845978501711095,-0.00012097215385169237,0.9999845815124146,0.0,0.0,0.0,0.004873484373092651,-0.0017239190638065338,-0.03651714324951172
1368,736000000,imu2_frame,-0.003688207958531506,0.0025431568294551113,-0.00013195657854347324,0.9999899559809873,0.0,0.0,0.0,-0.040142279118299484,0.017412304878234863,-0.036726951599121094
1368,761000000,imu2_frame,-0.004875679905451792,0.004744919819172558,-0.000126854166402073,0.9999768484266972,0.0,0.0,0.0,0.0028916895389556885,0.0015652179718017578,-0.0010576248168945312
1368,786000000,imu2_frame,-0.0036881276163471077,0.0025429967887946126,-0.00013195697877552487,0.9999899566842526,0.0,0.0,0.0,-0.040145393460989,-0.0216517373919487,-0.0015707015991210938
1368,811000000,imu2_frame,-0.004875592300471456,0.004744759497251889,-0.0001268545346202112,0.9999768496145097,0.0,0.0,0.0,0.0028885453939437866,0.0015635043382644653,-0.0010576248168945312
1368,836000000,imu2_frame,-0.0023781790507644016,0.004565463787551463,-0.00011588008364745566,0.9999867436004406,0.0,0.0,0.0,-0.0006084814667701721,-0.008191131055355072,0.0024614334106445312
1368,861000000,imu2_frame,-0.004872978626814576,0.004744565552516338,-0.00012684306488462802,0.9999768632762747,0.0,0.0,0.0,0.002884775400161743,0.04057493060827255,0.0028476715087890625
1368,886000000,imu2_frame,-0.002375597068718038,0.004565279140187174,-0.00011586873446044352,0.9999867505819142,0.0,0.0,0.0,-0.0006120726466178894,-0.008241601288318634,0.0024614334106445312
1368,911000000,imu2_frame,-0.004870683962315116,0.0047443925771597385,-0.00012683300207947016,0.999976875277725,0.0,0.0,0.0,0.0028814226388931274,0.040530093014240265,0.0028476715087890625
1368,936000000,imu2_frame,-0.00237333170057253,0.004565116982835163,-0.00011585877672211711,0.9999867567024655,0.0,0.0,0.0,-0.000615239143371582,-0.00828588381409645,0.002460479736328125
1368,961000000,imu2_frame,-0.004873593782294687,0.004598538180997393,-0.00012719252756415709,0.9999775424239805,0.0,0.0,0.0,3.0443072319030762e-05,0.0015241950750350952,-0.0010852813720703125
1368,986000000,imu2_frame,-0.002373687565291416,0.004565162373649806,-0.0001158601914576964,0.9999867556504239,0.0,0.0,0.0,-0.0006143450736999512,-0.04734142869710922,-0.001445770263671875
1369,11000000,imu2_frame,-0.004873953541570969,0.004598541241579535,-0.00012719416321331012,0.9999775406562734,0.0,0.0,0.0,3.0510127544403076e-05,0.0015312135219573975,-0.0010852813720703125
1369,36000000,imu2_frame,-0.002370193421940273,0.004594871981318612,-0.0001156993014271295,0.9999866278847381,0.0,0.0,0.0,-3.3624470233917236e-05,-0.008347179740667343,0.0024662017822265625
1369,61000000,imu2_frame,-0.004870653404104798,0.00459758419170335,-0.00012718127048366083,0.9999775611382196,0.0,0.0,0.0,1.1824071407318115e-05,0.0014667212963104248,-0.0010862350463867188
1369,86000000,imu2_frame,-0.0023697438466371776,0.00459488407684304,-0.00011569717529538757,0.9999866288948994,0.0,0.0,0.0,-3.337860107421875e-05,-0.04741846024990082,-0.0014400482177734375
1369,111000000,imu2_frame,-0.0048701992743558215,0.004597582825982353,-0.00012717918776658694,0.9999775633566187,0.0,0.0,0.0,1.179426908493042e-05,0.0014578402042388916,-0.0010862350463867188
1369,136000000,imu2_frame,-0.002366492452459668,0.00459506352790336,-0.00011568135419538447,0.9999866357719345,0.0,0.0,0.0,-2.9884278774261475e-05,-0.00841953232884407,0.0024652481079101562
1369,161000000,imu2_frame,-0.004868953446470106,0.004597585262803636,-0.00012717345754192837,0.999977569412934,0.0,0.0,0.0,1.185387372970581e-05,0.04049598425626755,0.0028200149536132812
1369,186000000,imu2_frame,-0.0023652654351218835,0.004595061201263547,-0.00011567572224238788,0.9999866386862902,0.0,0.0,0.0,-2.9928982257843018e-05,-0.008443519473075867,0.0024652481079101562
1369,211000000,imu2_frame,-0.00486787062272702,0.004597590105553312,-0.00012716846951658342,0.9999775746630531,0.0,0.0,0.0,1.1943280696868896e-05,0.04047480970621109,0.0028200149536132812
1369,236000000,imu2_frame,-0.00236419979963057,0.004595059530234411,-0.00011567083080176416,0.9999866412145113,0.0,0.0,0.0,-2.995133399963379e-05,-0.008464347571134567,0.0024652481079101562
1369,261000000,imu2_frame,-0.004866928649836745,0.004597588287705496,-0.00012716414447963987,0.9999775792570225,0.0,0.0,0.0,1.1906027793884277e-05,0.04045639932155609,0.0028200149536132812
1369,286000000,imu2_frame,-0.0023641672995385198,0.0045946164449519895,-0.00011567283713995228,0.9999866433270488,0.0,0.0,0.0,-3.859400749206543e-05,-0.04752747341990471,-0.0014410018920898438
1369,311000000,imu2_frame,-0.0048645752161594015,0.004597584084484343,-0.00012715334045084963,0.9999775907292026,0.0,0.0,0.0,1.1831521987915039e-05,0.0013479068875312805,-0.001087188720703125
1369,336000000,imu2_frame,-0.0023612411055550712,0.0046174038759936075,-0.00011554851675534481,0.9999865452946993,0.0,0.0,0.0,0.00040681660175323486,-0.008522141724824905,-0.03659343719482422
1369,361000000,imu2_frame,-0.00486154431754984,0.004596969940881109,-0.00012714079981723754,0.9999776082940198,0.0,0.0,0.0,-1.564621925354004e-07,0.0012886673212051392,-0.001087188720703125
1369,386000000,imu2_frame,-0.002357709414111562,0.004617431607145918,-0.0001155321494132784,0.999986553501593,0.0,0.0,0.0,0.0004073977470397949,-0.047653667628765106,-0.0014371871948242188
1369,411000000,imu2_frame,-0.004857985078023244,0.004596997182697372,-0.00012712430467029154,0.9999776254683376,0.0,0.0,0.0,3.7997961044311523e-07,0.0012190937995910645,-0.0010881423950195312
1369,436000000,imu2_frame,-0.0023548006792969917,0.004617596101909154,-0.00011551797866918483,0.9999865595974764,0.0,0.0,0.0,0.00041059404611587524,-0.008648034185171127,-0.036594390869140625
1369,461000000,imu2_frame,-0.004358944051095262,0.0031226399669362034,-0.000128292688734761,0.9999856160302419,0.0,0.0,0.0,0.006339430809020996,-0.00853843241930008,0.0025053024291992188
1369,486000000,imu2_frame,-0.00636600972394707,0.0016254638564669507,-0.00014108539791754299,0.9999784057080214,0.0,0.0,0.0,-0.022932548075914383,0.03068917989730835,0.0027866363525390625
1369,511000000,imu2_frame,-0.0043621850465903455,0.003120223276701506,-0.00012831333888193897,0.9999856094384609,0.0,0.0,0.0,0.006292186677455902,-0.008475065231323242,0.002506256103515625
1369,536000000,imu2_frame,-0.0025396514665909507,0.004837531637640594,-0.00011513514934524728,0.9999850674895001,0.0,0.0,0.0,0.004709124565124512,-0.005034387111663818,0.0025272369384765625
1369,561000000,imu2_frame,-0.004361384358266983,0.003120981590431309,-0.00012830753682453557,0.9999856105652559,0.0,0.0,0.0,-0.028849240392446518,0.030571766197681427,0.002506256103515625
1369,586000000,imu2_frame,-0.0025388459915845797,0.004838291076414185,-0.00011512932309833415,0.9999850658613506,0.0,0.0,0.0,0.004723943769931793,-0.005050137639045715,0.0025272369384765625
1369,611000000,imu2_frame,-0.004360498766412259,0.003121824333796271,-0.00012830111327889849,0.9999856117975705,0.0,0.0,0.0,-0.028832778334617615,0.030554451048374176,0.002506256103515625
1369,636000000,imu2_frame,-0.002537952697894191,0.004839132491787489,-0.00011512286437786158,0.9999850640582368,0.0,0.0,0.0,0.004740424454212189,-0.005067586898803711,0.0025272369384765625
1369,661000000,imu2_frame,-0.004359505547390624,0.003122751712201303,-0.0001282939528008347,0.9999856132334043,0.0,0.0,0.0,-0.028814636170864105,0.03053504228591919,0.002506256103515625
1369,686000000,imu2_frame,-0.005069288867013553,0.005519766365175579,-0.00012005875555930862,0.9999719096432419,0.0,0.0,0.0,0.018037043511867523,0.005350343883037567,-0.0008649826049804688
1369,711000000,imu2_frame,-0.0043595338977002775,0.0031228453106100264,-0.0001282936371755875,0.9999856128175562,0.0,0.0,0.0,-0.028812803328037262,-0.008526891469955444,-0.001399993896484375
1369,736000000,imu2_frame,-0.005089456070155754,0.0055135890207460925,-0.00012014865906040907,0.9999718412722031,0.0,0.0,0.0,0.017916239798069,0.005744531750679016,-0.03992462158203125
1369,761000000,imu2_frame,-0.002768520961307823,0.00458426237444114,-0.00011208317556097296,0.9999856535308549,0.0,0.0,0.0,-0.00024178624153137207,-0.0005615130066871643,0.0025043487548828125
1369,786000000,imu2_frame,-0.004763580622086424,0.006090211840262728,-0.00011705812942195185,0.9999701015114363,0.0,0.0,0.0,0.02918810397386551,0.0384380966424942,-0.035950660705566406
1369,811000000,imu2_frame,-0.002768118405632256,0.004583959574637765,-0.00011208216896474126,0.9999856560334743,0.0,0.0,0.0,-0.0002477094531059265,-0.0005693845450878143,-0.03655815124511719
1369,836000000,imu2_frame,-0.0028098806073880724,0.0020802850076521297,-0.00011920509747956735,0.9999938813689832,0.0,0.0,0.0,-0.014030631631612778,0.00024219602346420288,-0.0017232894897460938
1369,861000000,imu2_frame,-0.0028077527606646347,0.004580477025613179,-0.00011217439527094129,0.9999855614815436,0.0,0.0,0.0,-0.0003158971667289734,0.00020532682538032532,-0.03655433654785156
1369,886000000,imu2_frame,-0.0028056634054091124,0.007084511829278773,-0.00010513237605054497,0.9999709630245169,0.0,0.0,0.0,0.04862852394580841,0.00016820430755615234,-0.035984039306640625
1369,911000000,imu2_frame,-0.002807749491887914,0.0045844573934156,-0.0001121632030195981,0.9999855432518084,0.0,0.0,0.0,-0.00023806840181350708,0.00020529329776763916,-0.036553382873535156
1369,936000000,imu2_frame,-0.001023975247398728,0.006339165084985799,-9.905790431660035e-05,0.9999793781114936,0.0,0.0,0.0,0.03406438231468201,-0.03465982899069786,0.0027494430541992188
1369,961000000,imu2_frame,-0.0028210561998220497,0.004600959264357617,-0.00011223064788467253,0.9999854300038811,0.0,0.0,0.0,8.442997932434082e-05,0.0004654303193092346,-0.03654956817626953
1369,986000000,imu2_frame,-0.0010232978961230697,0.006339804907999796,-9.905298244896338e-05,0.9999793747491251,0.0,0.0,0.0,0.03407687693834305,-0.03467307239770889,-0.03631305694580078
1370,11000000,imu2_frame,-0.002820385336795649,0.004601609076944416,-0.00011222573062075258,0.9999854289067619,0.0,0.0,0.0,9.71481204032898e-05,0.0004523172974586487,-0.03654956817626953
1370,36000000,imu2_frame,-0.0003993024264945312,0.003979383570073323,-0.00010284036803358589,0.9999919972118942,0.0,0.0,0.0,-0.012059509754180908,-0.046874333173036575,0.0022563934326171875
1370,61000000,imu2_frame,-0.0028208128977709923,0.004601718301572202,-0.00011222738827611427,0.9999854271979577,0.0,0.0,0.0,9.926408529281616e-05,0.00046066567301750183,0.0025129318237304688
1370,86000000,imu2_frame,-0.000985811132398525,0.006303271015048513,-9.898262203891682e-05,0.9999796433694851,0.0,0.0,0.0,0.03336286544799805,-0.03540589287877083,-0.03632354736328125
1370,111000000,imu2_frame,-0.0028191017560986477,0.00460330531218521,-0.00011221503651978055,0.9999854247204192,0.0,0.0,0.0,0.00013028830289840698,0.00042722001671791077,-0.036548614501953125
1370,136000000,imu2_frame,-0.0004569821265255211,0.003784121112816927,-0.00010365153949114635,0.9999927303991255,0.0,0.0,0.0,-0.015876397490501404,-0.04574719537049532,0.002227783203125
1370,161000000,imu2_frame,-0.002814583362053024,0.004616276136245102,-0.00011219200866501875,0.9999853776571361,0.0,0.0,0.0,0.000383816659450531,0.00033891573548316956,-0.03654766082763672
1370,186000000,imu2_frame,-0.0011739519836163302,0.0027252252558125113,-0.0001099420355695816,0.9999955914386793,0.0,0.0,0.0,-0.03657609224319458,-0.031734317541122437,0.0021152496337890625
1370,211000000,imu2_frame,-0.00281236179339933,0.00461371445596667,-0.0001121889642685652,0.9999853957302066,0.0,0.0,0.0,0.0003337785601615906,0.0002955012023448944,0.002513885498046875
1370,236000000,imu2_frame,-0.0011741024143272815,0.002725467437855602,-0.00010994204886009445,0.9999955906020344,0.0,0.0,0.0,-0.03657136857509613,-0.0317313801497221,0.0021152496337890625
1370,261000000,imu2_frame,-0.002812546773483743,0.0046139277534815075,-0.00011218921888269872,0.9999853942257917,0.0,0.0,0.0,0.00033793598413467407,0.0002991035580635071,0.0025148391723632812
1370,286000000,imu2_frame,-0.0011743894794683737,0.0027257707137826517,-0.00010994251933240019,0.9999955894382779,0.0,0.0,0.0,-0.036565426737070084,-0.03172576054930687,0.0021152496337890625
1370,311000000,imu2_frame,-0.0028128208601307185,0.004614243912814335,-0.00011218959394238493,0.9999853919960116,0.0,0.0,0.0,0.0003441274166107178,0.0003044717013835907,0.0025148391723632812
1370,336000000,imu2_frame,-0.0011746934909777995,0.0027260753167715444,-0.00010994306702965108,0.999995588250814,0.0,0.0,0.0,-0.03655948117375374,-0.03171982243657112,0.0021162033081054688
1370,361000000,imu2_frame,-0.002810351521981134,0.0046168926051016745,-0.00011217975182788278,0.9999853867145756,0.0,0.0,0.0,0.00039589405059814453,0.00025620684027671814,-0.03654766082763672
1370,386000000,imu2_frame,-0.00117269724709854,0.0027238806319516812,-0.00010994001896662983,0.9999955965746358,0.0,0.0,0.0,-0.03660236671566963,-0.03175884298980236,-0.03694725036621094
1370,411000000,imu2_frame,-0.002808409885764372,0.004614647817713807,-0.00011217709701342887,0.9999854025313224,0.0,0.0,0.0,0.00035203248262405396,0.00021825358271598816,-0.036548614501953125
1370,436000000,imu2_frame,-0.005309366693702122,0.004593041579563008,-0.00012377785352684427,0.9999753493328739,0.0,0.0,0.0,-7.792562246322632e-05,0.010041564702987671,-0.00099945068359375
1370,461000000,imu2_frame,-0.0028061621115948853,0.004614676823448296,-0.00011216661906842578,0.9999854087088812,0.0,0.0,0.0,0.00035259872674942017,-0.03888818249106407,-0.001392364501953125
1370,486000000,imu2_frame,-0.005308145365909876,0.004616152752855159,-0.00012370735163700136,0.9999752494052179,0.0,0.0,0.0,0.00037385523319244385,0.010017752647399902,-0.040058135986328125
1370,511000000,imu2_frame,-0.002807972132258664,0.004614676264844217,-0.00011217497840418791,0.9999854036295978,0.0,0.0,0.0,0.00035259872674942017,-0.03885279968380928,-0.040454864501953125
1370,536000000,imu2_frame,-0.005308949815225636,0.004593038212475102,-0.00012377598241106007,0.9999753515618993,0.0,0.0,0.0,-7.796287536621094e-05,0.010033436119556427,-0.00099945068359375
1370,561000000,imu2_frame,-0.002805782811293872,0.004614699948997636,-0.00011216479903672247,0.9999854096666881,0.0,0.0,0.0,0.0003530457615852356,-0.03889559581875801,-0.001392364501953125
1370,586000000,imu2_frame,-0.0051016693750139605,0.003615797695573047,-0.00012556196803755574,0.9999804414141333,0.0,0.0,0.0,-0.0191790834069252,0.04504256695508957,-0.036355018615722656
1370,611000000,imu2_frame,-0.002809104415494453,0.004613254362666081,-0.00011218418573217444,0.9999854070091607,0.0,0.0,0.0,0.00032480061054229736,0.00023182108998298645,-0.036548614501953125
1370,636000000,imu2_frame,-0.0013642627971560601,0.002568901039337451,-0.00011126271336295061,0.9999957635685659,0.0,0.0,0.0,-0.03963220864534378,-0.02801455743610859,0.0021085739135742188
1370,661000000,imu2_frame,-0.0035175744927169995,0.003841680779984757,-0.00011505692863108401,0.9999864273680797,0.0,0.0,0.0,-0.014758743345737457,-0.024983718991279602,-0.0014314651489257812
1370,686000000,imu2_frame,-0.005670464088418645,0.005114200234342581,-0.00011884972023825788,0.9999708379086506,0.0,0.0,0.0,0.010108225047588348,0.017100095748901367,-0.0008230209350585938
1370,711000000,imu2_frame,-0.0035160475276495126,0.0038407791896555073,-0.00011505423283259656,0.9999864362017731,0.0,0.0,0.0,-0.014776349067687988,-0.025013543665409088,-0.0014333724975585938
1370,736000000,imu2_frame,-0.005663296412173657,0.005121610756749952,-0.00011879613339801764,0.9999708406071064,0.0,0.0,0.0,0.010253101587295532,0.016960009932518005,-0.039885520935058594
1370,761000000,imu2_frame,-0.0032027595103214317,0.004670020945032381,-0.00010875297275589838,0.9999839605757099,0.0,0.0,0.0,0.001433640718460083,0.007926277816295624,0.0025701522827148438
1370,786000000,imu2_frame,-0.0007432104659582946,0.004218578634700918,-9.871327333447929e-05,0.9999908207019683,0.0,0.0,0.0,-0.0073847100138664246,-0.04015183728188276,0.0023021697998046875
1370,811000000,imu2_frame,-0.0032060005374317992,0.004670616435872406,-0.00010876619839923062,0.9999839474074457,0.0,0.0,0.0,0.0014452487230300903,0.00798962265253067,0.00257110595703125
1370,836000000,imu2_frame,-0.0007461471809332613,0.0042191192914497804,-9.872525256322461e-05,0.9999908162328858,0.0,0.0,0.0,-0.00737413763999939,-0.04009443148970604,0.0023021697998046875
1370,861000000,imu2_frame,-0.003208903820402947,0.004671148563433967,-0.00010877805016974548,0.9999839356083204,0.0,0.0,0.0,0.001455642282962799,0.008046373724937439,0.00257110595703125
1370,886000000,imu2_frame,-0.0007487483001243898,0.004219601470048049,-9.873585619423022e-05,0.9999908122531165,0.0,0.0,0.0,-0.007364712655544281,-0.04004358686506748,0.0023021697998046875
1370,911000000,imu2_frame,-0.003211473848920401,0.004671619014708667,-0.00010878854112074216,0.9999839251590759,0.0,0.0,0.0,0.0014648288488388062,0.0080966055393219,0.0025720596313476562
1370,936000000,imu2_frame,-0.0007510329461137274,0.004220026686641488,-9.874516349144017e-05,0.9999908087445959,0.0,0.0,0.0,-0.007356412708759308,-0.03999892622232437,0.0023031234741210938
1370,961000000,imu2_frame,-0.00321661352119447,0.004654903881599326,-0.0001088227917060677,0.9999839865842394,0.0,0.0,0.0,0.0011380910873413086,0.00819704681634903,0.03772544860839844
1370,986000000,imu2_frame,-0.0007286579821611824,0.004405023351715082,-9.804585173456104e-05,0.9999900275571887,0.0,0.0,0.0,-0.0037403106689453125,-0.04043600521981716,-0.036728858947753906
1371,11000000,imu2_frame,-0.003220083818239443,0.0046552519182467035,-0.00010883782460437762,0.9999839737936348,0.0,0.0,0.0,0.0011448934674263,0.008264884352684021,-0.036492347717285156
1371,36000000,imu2_frame,-0.0027057738587083274,0.007103661484586527,-9.855793258025397e-05,0.999971103116321,0.0,0.0,0.0,0.009940877556800842,-0.0017851665616035461,-0.035988807678222656
1371,61000000,imu2_frame,-0.002808084364802463,0.004605750542988565,-0.00010604512444284536,0.9999854451333617,0.0,0.0,0.0,0.00017847120761871338,0.00021132826805114746,-0.03655052185058594
1371,86000000,imu2_frame,-0.0027052662760679892,0.007107321714460011,-9.854531335708672e-05,0.9999710784823949,0.0,0.0,0.0,0.0490749329328537,-0.0017950832843780518,-0.035988807678222656
1371,111000000,imu2_frame,-0.0028079342365338504,0.004609429913291587,-0.00010603410025902974,0.9999854286028208,0.0,0.0,0.0,0.00025038421154022217,0.00020839646458625793,-0.036548614501953125
1371,136000000,imu2_frame,-0.0012288185481375783,0.002668627202203219,-0.00010420598396574503,0.9999956787781357,0.0,0.0,0.0,-0.037682391703128815,-0.030662255361676216,0.0021123886108398438
1371,161000000,imu2_frame,-0.002804437718478261,0.004609754133944085,-0.00010602437271161994,0.9999854369213285,0.0,0.0,0.0,0.0002567172050476074,0.0001400373876094818,-0.03654956817626953
1371,186000000,imu2_frame,-0.00438138151803468,0.0065523221027904465,-0.00010784416163077085,0.9999689289876419,0.0,0.0,0.0,0.0382222980260849,0.030967198312282562,-0.0359039306640625
1371,211000000,imu2_frame,-0.0028057735976493164,0.0046114000750753295,-0.00010602591463555184,0.9999854255849792,0.0,0.0,0.0,0.00028890371322631836,0.0001661740243434906,-0.03654956817626953
1371,236000000,imu2_frame,-0.005307767211636832,0.0046169172796974925,-0.00011754721611814025,0.9999752486260404,0.0,0.0,0.0,0.00038942694664001465,0.010009810328483582,-0.040058135986328125
1371,261000000,imu2_frame,-0.002807692233770754,0.0046114103049139385,-0.00010603471770649879,0.9999854201516933,0.0,0.0,0.0,0.00028908997774124146,-0.03885883465409279,-0.040454864501953125
1371,286000000,imu2_frame,-0.005310110551651891,0.004637478616808046,-0.00011750028176522478,0.999975141046862,0.0,0.0,0.0,0.0007913261651992798,0.01005563884973526,-0.0752096176147461
1371,311000000,imu2_frame,-0.0028104539236578213,0.0046114407276320254,-0.00010604736460173709,0.9999854122521564,0.0,0.0,0.0,0.00028967857360839844,-0.03880485147237778,-0.07561111450195312
1371,336000000,imu2_frame,-0.000937746081688352,0.00627265894321403,-9.274192457617949e-05,0.9999798826881486,0.0,0.0,0.0,0.03276476263999939,-0.03634622320532799,-0.03633308410644531
1371,361000000,imu2_frame,-0.003240483298590372,0.005288779439251039,-0.00010810922992500111,0.9999807580110874,0.0,0.0,0.0,0.013528004288673401,-0.03039781004190445,-0.04027366638183594
1371,386000000,imu2_frame,-0.0018921767572850216,0.003183013084447317,-0.00010780336646845406,0.9999931382130867,0.0,0.0,0.0,-0.0276293084025383,-0.017694365233182907,0.0022115707397460938
1371,411000000,imu2_frame,-0.003240881005458707,0.005289401190649595,-0.00010810931808033572,0.9999807534336489,0.0,0.0,0.0,0.013540148735046387,0.008672460913658142,0.0026960372924804688
1371,436000000,imu2_frame,-0.005526837329102744,0.004272420692364492,-0.00012349630885516864,0.9999755923217459,0.0,0.0,0.0,-0.0063454508781433105,0.014291629195213318,-0.0010089874267578125
1371,461000000,imu2_frame,-0.003041163712497263,0.004566535690345664,-0.00011125179497929261,0.9999849427356898,0.0,0.0,0.0,-0.0005889013409614563,0.004767652601003647,0.0025320053100585938
1371,486000000,imu2_frame,-0.0005582540938985742,0.004860280338103103,-9.902033249649783e-05,0.9999880280395238,0.0,0.0,0.0,0.0051586925983428955,-0.04376594349741936,0.002410888671875
1371,511000000,imu2_frame,-0.003043931309651377,0.004566209251203733,-0.0001112654275361603,0.9999849358041655,0.0,0.0,0.0,-0.0005953088402748108,0.004821740090847015,0.0025320053100585938
1371,536000000,imu2_frame,-0.0005933044312166699,0.005060480731905922,-9.857086437125437e-05,0.9999870148198919,0.0,0.0,0.0,0.00907185673713684,-0.043080481700599194,-0.03661155700683594
1371,561000000,imu2_frame,-0.003042400404526225,0.004543586764585998,-0.00011127111230507088,0.9999850435070671,0.0,0.0,0.0,-0.0010374858975410461,0.004791777580976486,0.0025281906127929688
1371,586000000,imu2_frame,-0.0005942280852808255,0.005060293969757993,-9.857562524553716e-05,0.9999870152160819,0.0,0.0,0.0,0.009068205952644348,-0.04306242801249027,0.0024509429931640625
1371,611000000,imu2_frame,-0.0030433365203306156,0.004543388354212705,-0.00011127596527400456,0.9999850415594957,0.0,0.0,0.0,-0.0010413676500320435,0.004810072481632233,0.0025281906127929688
1371,636000000,imu2_frame,-0.005545494565716912,0.004620578505486543,-0.00012240825729733427,0.9999739410407228,0.0,0.0,0.0,0.0004597976803779602,0.014656886458396912,-0.0009441375732421875
1371,661000000,imu2_frame,-0.003046065959670701,0.004543474846093854,-0.00011128809628965651,0.9999850328547182,0.0,0.0,0.0,-0.0010396838188171387,-0.034199073910713196,-0.0013780593872070312
1371,686000000,imu2_frame,-0.0005956639959795901,0.005054157654060578,-9.859921990613541e-05,0.9999870453925918,0.0,0.0,0.0,0.008948251605033875,-0.04303437005728483,0.0024499893188476562
1371,711000000,imu2_frame,-0.0030461174076441737,0.0045434633825467904,-0.00011128836640348012,0.9999850327500556,0.0,0.0,0.0,-0.0010399073362350464,0.004864431917667389,0.0025281906127929688
1371,736000000,imu2_frame,-0.0005957056890546526,0.00505415323792495,-9.859942191685098e-05,0.9999870453900559,0.0,0.0,0.0,0.008948147296905518,-0.04303355701267719,0.0024499893188476562
1371,761000000,imu2_frame,-0.0030851828655392255,0.004783506668646491,-0.00011134269056410146,0.9999837935253963,0.0,0.0,0.0,0.0036519691348075867,-0.03343401476740837,-0.0013294219970703125
1371,786000000,imu2_frame,-0.005576484659304814,0.004542107855527374,-0.00012400373745817688,0.9999741280143932,0.0,0.0,0.0,-0.001074269413948059,0.015262603759765625,-0.04001426696777344
1371,811000000,imu2_frame,-0.0030880550641310617,0.004783227552733116,-0.00011135729128538543,0.9999837859933796,0.0,0.0,0.0,0.0036465302109718323,-0.033377859741449356,-0.04039192199707031
1371,836000000,imu2_frame,-0.000947533865109053,0.0034898711737245823,-0.00010511362163523911,0.9999934559435333,0.0,0.0,0.0,-0.021629072725772858,-0.03615885600447655,-0.03686332702636719
1371,861000000,imu2_frame,-0.003096707084311264,0.004774952551711394,-0.00011139532702977368,0.9999837987809822,0.0,0.0,0.0,0.0034847334027290344,0.005853723734617233,0.0025768280029296875
1371,886000000,imu2_frame,-0.0009481980814839684,0.0034902711067660275,-0.00010511555403158355,0.9999934539179344,0.0,0.0,0.0,-0.021621257066726685,-0.03614586964249611,0.0021991729736328125
1371,911000000,imu2_frame,-0.003097375466426905,0.004775351521217834,-0.00011139728034402542,0.9999837948055531,0.0,0.0,0.0,0.0034925267100334167,0.005866795778274536,0.0025768280029296875
1371,936000000,imu2_frame,-0.005589260989706999,0.0045440111023246545,-0.00012401257657747614,0.9999740480360336,0.0,0.0,0.0,-0.0010371208190917969,0.015512309968471527,-0.04001140594482422
1371,961000000,imu2_frame,-0.003086372691423322,0.00459014062659388,-0.00011238261413275966,0.9999846960242872,0.0,0.0,0.0,-0.00012767314910888672,0.005651481449604034,0.0025424957275390625
1371,986000000,imu2_frame,-0.0005848568290725305,0.004636194785985316,-0.000100758477815251,0.9999890766844031,0.0,0.0,0.0,0.0007785633206367493,-0.04324620310217142,0.0023698806762695312
1372,11000000,imu2_frame,-0.00308803823778498,0.0045901104160244585,-0.00011239035318122659,0.9999846910201273,0.0,0.0,0.0,-0.00012830644845962524,0.005684021860361099,0.0025424957275390625
1372,36000000,imu2_frame,-0.000593908447965183,0.004801348292392166,-0.0001002899320202652,0.9999882920660923,0.0,0.0,0.0,0.004006706178188324,-0.04306900128722191,-0.03666114807128906
1372,61000000,imu2_frame,-0.00308845934556298,0.004590074008148244,-0.00011239239618299948,0.9999846898865101,0.0,0.0,0.0,-0.00012902915477752686,0.005692251026630402,-0.03652000427246094
1372,86000000,imu2_frame,-0.005590495780495377,0.00460090975524606,-0.00012384241193689338,0.9999737809809863,0.0,0.0,0.0,7.504969835281372e-05,0.015536561608314514,-0.00093841552734375
1372,111000000,imu2_frame,-0.003090799810562353,0.004590083833037859,-0.00011240310766927336,0.9999846826089279,0.0,0.0,0.0,-0.00012879818677902222,-0.0333244688808918,-0.0013637542724609375
1372,136000000,imu2_frame,-0.0005898323515439786,0.0046359201762433515,-0.00010078210118516231,0.9999890750327648,0.0,0.0,0.0,0.0007731467485427856,-0.043148948810994625,0.0023708343505859375
1372,161000000,imu2_frame,-0.003093079567614518,0.004590044094257981,-0.00011241369912111328,0.9999846757411642,0.0,0.0,0.0,-0.00012960284948349,0.005782574415206909,0.0025424957275390625
1372,186000000,imu2_frame,-0.0005993351337185716,0.004798091117981161,-0.00010032401860652533,0.9999883044586633,0.0,0.0,0.0,0.003943026065826416,-0.04296292643994093,-0.03666210174560547
1372,211000000,imu2_frame,-0.0030942245382244962,0.004589948603262048,-0.00011241924893112904,0.9999846726366552,0.0,0.0,0.0,-0.00013149529695510864,0.005804944783449173,-0.03652000427246094
1372,236000000,imu2_frame,-0.000593648072319345,0.004636403702883546,-0.00010079830586286091,0.9999890705314592,0.0,0.0,0.0,0.0007825866341590881,-0.043074361979961395,0.0023708343505859375
1372,261000000,imu2_frame,-0.003096928869292767,0.004589898141995516,-0.00011243181837859901,0.9999846644952666,0.0,0.0,0.0,-0.0001324489712715149,0.005857821553945541,0.0025434494018554688
1372,286000000,imu2_frame,-0.0005966128720801597,0.004636334139367223,-0.00010081212998227842,0.9999890690881293,0.0,0.0,0.0,0.000781230628490448,-0.043016405776143074,0.0023708343505859375
1372,311000000,imu2_frame,-0.003099928529624757,0.004589844133096649,-0.0001124457588827702,0.9999846554472205,0.0,0.0,0.0,-0.00013353675603866577,0.0059164538979530334,0.0025424957275390625
1372,336000000,imu2_frame,-0.0005998507328455609,0.004636274943386653,-0.00010082717864337913,0.9999890674240532,0.0,0.0,0.0,0.0007800683379173279,-0.04295311402529478,0.0023708343505859375
1372,361000000,imu2_frame,-0.003103202401068513,0.004589782994625962,-0.00011246097657596788,0.9999846455718453,0.0,0.0,0.0,-0.00013474375009536743,0.005980439484119415,0.0025434494018554688
1372,386000000,imu2_frame,-0.000603317492304498,0.004636212782154165,-0.00010084328582987582,0.9999890656250565,0.0,0.0,0.0,0.0007788464426994324,-0.042885350063443184,0.0023708343505859375
1372,411000000,imu2_frame,-0.0031067067042861,0.0045897177133707705,-0.00011247726332598798,0.9999846349887734,0.0,0.0,0.0,-0.00013603270053863525,0.0060489363968372345,0.0025434494018554688
1372,436000000,imu2_frame,-0.005608205750734477,0.004601195171292508,-0.0001239217238487236,0.9999736804909714,0.0,0.0,0.0,8.058547973632812e-05,0.015882737934589386,-0.0009336471557617188
1372,461000000,imu2_frame,-0.003108188485010568,0.004589722322862051,-0.00011248405582741036,0.9999846303622262,0.0,0.0,0.0,-0.0001359209418296814,-0.03298457711935043,-0.0013628005981445312
1372,486000000,imu2_frame,-0.0006084418135765329,0.0046358842840525105,-0.00010086775293054548,0.9999890640407828,0.0,0.0,0.0,0.0007724165916442871,-0.042785183526575565,0.0023708343505859375
1372,511000000,imu2_frame,-0.0031118885409195897,0.004589654990201215,-0.000112501248941124,0.9999846191618394,0.0,0.0,0.0,-0.00013725459575653076,0.006150234490633011,0.002544403076171875
1372,536000000,imu2_frame,-0.0006121224932835874,0.004635811726221304,-0.00010088487253212132,0.9999890621291488,0.0,0.0,0.0,0.0007709711790084839,-0.04271323699504137,0.0023717880249023438
1372,561000000,imu2_frame,-0.003115605103479808,0.004589587740072628,-0.00011251851870953937,0.9999846078959408,0.0,0.0,0.0,-0.00013858824968338013,0.00622287392616272,0.0025453567504882812
1372,586000000,imu2_frame,-0.005616852745180811,0.004601317551186753,-0.00012396060960040807,0.9999736313902479,0.0,0.0,0.0,8.294731378555298e-05,0.016051754355430603,-0.0009317398071289062
1372,611000000,imu2_frame,-0.0031165419785704447,0.004589592530912642,-0.00011252280201901533,0.9999846049540538,0.0,0.0,0.0,-0.00013849139213562012,-0.03282129764556885,-0.0013608932495117188
1372,636000000,imu2_frame,-0.0026902909466437006,0.002122006920832071,-0.0001182579772952077,0.9999941227008793,0.0,0.0,0.0,-0.013214759528636932,-0.0020953603088855743,-0.040795326232910156
1372,661000000,imu2_frame,-0.0027975932078968275,0.004619880392972119,-0.00011176459863537796,0.9999854087365836,0.0,0.0,0.0,0.0004543513059616089,6.791204214096069e-06,0.002513885498046875
1372,686000000,imu2_frame,-0.0026903187362205365,0.002122419036483795,-0.00011825695210534277,0.9999941217516354,0.0,0.0,0.0,-0.04836295172572136,-0.0020948126912117004,0.0021734237670898438
1372,711000000,imu2_frame,-0.002797610683215007,0.004620294294570734,-0.0001117635210193337,0.999985406775525,0.0,0.0,0.0,0.0004624277353286743,7.12275505065918e-06,0.002513885498046875
1372,736000000,imu2_frame,-0.002690411258467491,0.0021228407394844316,-0.00011825619957955671,0.9999941206076797,0.0,0.0,0.0,-0.048354700207710266,-0.002092994749546051,0.0021734237670898438
1372,761000000,imu2_frame,-0.0027976278441021185,0.004620720409085498,-0.0001117624109005099,0.9999854047587446,0.0,0.0,0.0,0.00047075748443603516,7.465481758117676e-06,0.002513885498046875
1372,786000000,imu2_frame,-0.005299922512487983,0.004614694323013979,-0.00012334071359255416,0.9999752997973176,0.0,0.0,0.0,0.0003453940153121948,0.009856969118118286,-0.04006004333496094
1372,811000000,imu2_frame,-0.002800027477719424,0.004620713846198181,-0.00011177351713840145,0.99998539807157,0.0,0.0,0.0,0.0004706531763076782,-0.039008114486932755,-0.040454864501953125
1372,836000000,imu2_frame,-0.004667279572654439,0.002956503377763502,-0.00012506151010561716,0.9999847298578048,0.0,0.0,0.0,-0.03206480294466019,0.03655039519071579,-0.036522865295410156
1372,861000000,imu2_frame,-0.004863142973024644,0.00544924536026253,-0.0001140046605064021,0.999973320928296,0.0,0.0,0.0,0.01665981113910675,0.0013202205300331116,-0.0009202957153320312
1372,886000000,imu2_frame,-0.002549673051546899,0.004493466139070748,-0.00010604739328492113,0.9999866482525342,0.0,0.0,0.0,-0.002015724778175354,-0.00483999028801918,0.0024652481079101562
1372,911000000,imu2_frame,-0.004863982493048944,0.005449592495444571,-0.00011400754648853785,0.9999733149530644,0.0,0.0,0.0,0.01666659116744995,0.04039911925792694,0.0029859542846679688
1372,936000000,imu2_frame,-0.004718492025072263,0.0029528295131287263,-0.00012536047107910244,0.999984500337694,0.0,0.0,0.0,-0.03213676065206528,-0.0015110597014427185,-0.04041862487792969
1372,961000000,imu2_frame,-0.00283155431176131,0.004593137618668989,-0.0001120487980901172,0.9999854363099805,0.0,0.0,0.0,-6.847083568572998e-05,0.0006705969572067261,-0.03654956817626953
1372,987000000,imu2_frame,-0.0008674484781706121,0.006300684282455355,-9.819154124190757e-05,0.999979769429928,0.0,0.0,0.0,0.03331255167722702,-0.03771959990262985,-0.03632831573486328
1373,11000000,imu2_frame,-0.002678982218272667,0.004725782657725329,-0.00011097238571076337,0.9999852387498905,0.0,0.0,0.0,0.0025246962904930115,-0.0023115351796150208,-0.03654193878173828
1373,36000000,imu2_frame,-0.004355853427217474,0.002867198540605302,-0.00012387634742406538,0.9999863950915032,0.0,0.0,0.0,-0.03380947187542915,0.0304628387093544,0.0024747848510742188
1373,61000000,imu2_frame,-0.002696474826085742,0.004739370013957691,-0.00011096334349124292,0.999985127430663,0.0,0.0,0.0,0.0027902424335479736,-0.0019695833325386047,-0.036538124084472656
1373,86000000,imu2_frame,-0.004356018713536981,0.002867011413528513,-0.00012387763861019442,0.9999863949078771,0.0,0.0,0.0,-0.03381313383579254,0.030466079711914062,-0.036586761474609375
1373,111000000,imu2_frame,-0.0026966428152589246,0.004739179491423774,-0.00011096465772740264,0.9999851278804699,0.0,0.0,0.0,0.0027865245938301086,-0.00196630135178566,-0.036538124084472656
1373,136000000,imu2_frame,-0.00435614563854352,0.002866876529801767,-0.0001238786037438911,0.9999863947415636,0.0,0.0,0.0,-0.033815767616033554,0.03046855330467224,-0.036586761474609375
1373,161000000,imu2_frame,-0.002680236631507952,0.004724391373373584,-0.00011098205621927429,0.999985241961467,0.0,0.0,0.0,0.0024974942207336426,-0.0022870153188705444,0.0025196075439453125
1373,186000000,imu2_frame,-0.0043573143039909385,0.002865597744783435,-0.00012388755232532332,0.9999863933141768,0.0,0.0,0.0,-0.03384076803922653,0.030491404235363007,0.002475738525390625
1373,211000000,imu2_frame,-0.0026814146743581874,0.00472308368254716,-0.00011099112986848868,0.9999852449795651,0.0,0.0,0.0,0.002471938729286194,-0.002263985574245453,0.0025196075439453125
1373,236000000,imu2_frame,-0.004358209310557637,0.002864621459914325,-0.000123894398046094,0.9999863922102515,0.0,0.0,0.0,-0.033859848976135254,0.03050890564918518,0.0024747848510742188
1373,261000000,imu2_frame,-0.004971828281185365,0.0052922131103975536,-0.00011507052897377076,0.9999736297336596,0.0,0.0,0.0,0.013590045273303986,0.0034444406628608704,-0.0009317398071289062
1373,286000000,imu2_frame,-0.0025887112261421797,0.0045288904152014494,-0.000106254910768204,0.9999863881252027,0.0,0.0,0.0,-0.0013233721256256104,-0.004076816141605377,0.002475738525390625
1373,311000000,imu2_frame,-0.004972544823929976,0.00529242642167557,-0.00011507322030043634,0.9999736250415303,0.0,0.0,0.0,0.013594195246696472,0.0425209179520607,0.0029745101928710938
1373,336000000,imu2_frame,-0.0025894340933181525,0.0045291242555215465,-0.00010625757251628554,0.99998638519426,0.0,0.0,0.0,-0.00131881982088089,-0.0040626972913742065,0.002475738525390625
1373,361000000,imu2_frame,-0.005091814939859022,0.004606602581288909,-0.00011738963406875834,0.9999764191484467,0.0,0.0,0.0,0.00018841028213500977,0.0057887062430381775,-0.0010404586791992188
1373,386000000,imu2_frame,-0.0025895883919276955,0.004594463298737738,-0.00010592554626938738,0.9999860867625788,0.0,0.0,0.0,-4.165619611740112e-05,-0.004059597849845886,0.0024871826171875
1373,411000000,imu2_frame,-0.005090236000872013,0.004606584712471206,-0.00011738242562186017,0.9999764272702175,0.0,0.0,0.0,0.0001880750060081482,0.04482036083936691,0.002864837646484375
1373,436000000,imu2_frame,-0.0025879831324776377,0.004594456223024132,-0.00010591818601529389,0.9999860909515985,0.0,0.0,0.0,-4.179030656814575e-05,-0.004090968519449234,0.0024871826171875
1373,461000000,imu2_frame,-0.0050915610936091305,0.0045978506245355835,-0.00011741112059346729,0.9999764607178977,0.0,0.0,0.0,1.7352402210235596e-05,0.005783729255199432,-0.0010423660278320312
1373,486000000,imu2_frame,-0.0025903721857333376,0.00459446813637982,-0.00010592911074296688,0.9999860847099358,0.0,0.0,0.0,-4.155933856964111e-05,-0.043106772005558014,-0.0014190673828125
1373,511000000,imu2_frame,-0.00509088066413235,0.00460657189553263,-0.00011738539907624558,0.9999764240471387,0.0,0.0,0.0,0.0001878291368484497,0.04483295977115631,0.0028657913208007812
1373,536000000,imu2_frame,-0.0025886382808195823,0.004594460273805181,-0.00010592116152556849,0.999986089236921,0.0,0.0,0.0,-4.1715800762176514e-05,-0.00407816469669342,0.0024871826171875
1373,561000000,imu2_frame,-0.005082410282581925,0.004815016626422161,-0.00011680678552773785,0.9999754852379041,0.0,0.0,0.0,0.004262231290340424,0.04466775059700012,-0.03616046905517578
1373,586000000,imu2_frame,-0.0025897089014445037,0.004594555207245278,-0.00010592583564272448,0.9999860860281861,0.0,0.0,0.0,-3.985315561294556e-05,-0.004057236015796661,-0.0365753173828125
1373,611000000,imu2_frame,-0.005083276731542134,0.004815085423975824,-0.00011681058903965962,0.9999754805020554,0.0,0.0,0.0,0.00426357239484787,0.04468468576669693,-0.03616046905517578
1373,636000000,imu2_frame,-0.0025905890758400603,0.004594633873531327,-0.00010592967401347627,0.9999860833865202,0.0,0.0,0.0,-3.831833600997925e-05,-0.004040032625198364,-0.0365753173828125
1373,661000000,imu2_frame,-0.005091069467200066,0.004604736570979656,-0.0001173914298575591,0.9999764315382859,0.0,0.0,0.0,0.00015195459127426147,0.04483666270971298,0.002864837646484375
1373,686000000,imu2_frame,-0.002588636074367835,0.004614712734718038,-0.00010581844439760839,0.9999859959979975,0.0,0.0,0.0,0.00035416334867477417,-0.004078183323144913,-0.036571502685546875
1373,711000000,imu2_frame,-0.005091978592702382,0.004604724620265447,-0.00011739565567960566,0.9999764269638775,0.0,0.0,0.0,0.000151708722114563,0.04485441744327545,-0.036197662353515625
1373,736000000,imu2_frame,-0.002589560323837521,0.004614710510334328,-0.00010582271236851699,0.9999859936148047,0.0,0.0,0.0,0.0003541037440299988,-0.0040601156651973724,-0.036571502685546875
1373,761000000,imu2_frame,-0.0050930839425628194,0.004595128680444223,-0.00011742561021914345,0.999976465472858,0.0,0.0,0.0,-3.5859644412994385e-05,0.005813516676425934,-0.0010433197021484375
1373,786000000,imu2_frame,-0.00320670162535859,0.006236134968779753,-0.00010039913416751546,0.9999754085003046,0.0,0.0,0.0,-0.007016830146312714,0.008005097508430481,0.0029048919677734375
1373,811000000,imu2_frame,-0.0013175280139192565,0.007879506432854807,-8.334703503528576e-05,0.9999680847664985,0.0,0.0,0.0,0.02510860562324524,-0.028921563178300858,0.0031909942626953125
1373,836000000,imu2_frame,-0.0032036638428745066,0.00623878087308814,-0.000100371710545885,0.9999754017358223,0.0,0.0,0.0,-0.006965078413486481,0.007945723831653595,0.0029048919677734375
1373,861000000,imu2_frame,-0.005690023277200531,0.006534108480363271,-0.00011493648948578444,0.9999624572208076,0.0,0.0,0.0,-0.1574506163597107,-1.3223594948649406,0.038567543029785156
1373,886000000,imu2_frame,-0.008773717151560776,0.007014582911952054,-0.0019088731150041938,0.9999350847516787,-0.046875,0.015625,-0.142578125,-0.1483774036169052,-1.261841967701912,0.0395660400390625
1373,911000000,imu2_frame,-0.006943236353468878,0.006601890599985425,-0.0036768856537370675,0.9999473421242415,-0.046875,0.015625,-0.142578125,0.11291737854480743,0.464312881231308,0.0037384033203125
1373,936000000,imu2_frame,-0.004493030360191242,0.006000945581413731,-0.003836148532327475,0.9999645420187403,0.001953125,0.0,-0.013671875,0.10133537650108337,0.4163978546857834,0.0030422210693359375
1373,961000000,imu2_frame,-0.006626145883382337,0.00473168175535557,-0.004025806745664053,0.9999587482784202,0.001953125,0.0,-0.013671875,0.002121932804584503,-0.0029231756925582886,-0.03972911834716797
1373,986000000,imu2_frame,-0.008835791495289522,0.005858915696217286,-0.0041998024584933595,0.9999349796635908,0.001953125,0.0,-0.013671875,-0.1713639572262764,-0.3424406945705414,0.07835960388183594
1374,11000000,imu2_frame,-0.010918341967057963,0.007013046200106426,-0.003813292527243047,0.9999085287123953,0.01171875,0.001953125,0.03125,-0.14889757335186005,-0.30169932544231415,0.07945442199707031
1374,36000000,imu2_frame,-0.013135309336918555,0.008127116178020206,-0.003865695331931369,0.9998732269797271,0.001953125,0.0,-0.00390625,-0.1273069828748703,-0.2582855820655823,0.0808258056640625
1374,61000000,imu2_frame,-0.010741811244357826,0.007324083530204459,-0.0039061328351321133,0.9999078524633697,0.001953125,0.0,-0.00390625,0.052487924695014954,0.15582427382469177,-0.033814430236816406
1374,86000000,imu2_frame,-0.008440639487944933,0.00629289000305902,-0.003949642887275495,0.9999367757320995,0.001953125,0.0,-0.00390625,0.03250497579574585,0.07171599566936493,-0.03885841369628906
1374,111000000,imu2_frame,-0.0050904843915470874,0.005202905909293254,-0.0039993183578057555,0.9999655105009531,0.0859375,-0.00390625,-0.00390625,0.011456839740276337,0.006157822906970978,-0.039989471435546875
1374,136000000,imu2_frame,-0.003613732749221548,0.00294411489756986,-0.0013449979165213889,0.9999882319826027,0.025390625,-0.00390625,0.212890625,-0.03239034488797188,-0.023035205900669098,-0.040599822998046875
1374,161000000,imu2_frame,-0.005602891306283627,0.0038510202518938657,0.0013119006682774806,0.9999760277969999,0.025390625,-0.00390625,0.212890625,-0.0534878745675087,-0.13667453825473785,-0.0010585784912109375
1374,186000000,imu2_frame,-0.002805654680770507,0.004217528783405386,0.003983824316363445,0.9999792347326968,0.025390625,-0.00390625,0.212890625,-0.0071862488985061646,0.03498177230358124,-0.001461029052734375
1374,211000000,imu2_frame,-0.00011466208799783281,0.004706190924670382,0.003091338310245789,0.999984140997765,0.01953125,-0.001953125,-0.072265625,0.0021543726325035095,-0.017574348021298647,-0.001529693603515625
1374,236000000,imu2_frame,-0.0027032824875900716,0.004468664477199951,0.0018349548839197115,0.9999846780036964,-0.0078125,0.005859375,-0.099609375,-0.002398446202278137,0.03314914554357529,-0.0014295578002929688
1374,261000000,imu2_frame,-0.00463653209533218,0.0028292836881348153,0.0005772935976858574,0.99998508211675,-0.0078125,0.005859375,-0.099609375,0.07879344001412392,-0.0812772661447525,0.0025205612182617188
1374,286000000,imu2_frame,-0.005652660049465418,0.0010668261745650403,-0.008983523142813032,0.9999431011953734,0.064453125,0.001953125,-0.763671875,0.04329710640013218,-0.06120055168867111,0.002590179443359375
1374,311000000,imu2_frame,-0.002378318258928572,0.0006834206328107194,-0.018528650370792255,0.9998252675612549,0.064453125,0.001953125,-0.763671875,0.07499520946294069,0.566260002553463,0.002063751220703125
1374,336000000,imu2_frame,0.0008502299923098479,0.0002348866136405286,-0.023141503917777265,0.9997318104040016,0.060546875,-0.00390625,-0.369140625,0.06747473636642098,0.5030223783105612,0.0019588470458984375
1374,361000000,imu2_frame,0.003978713467486923,0.0009594312531537016,-0.02775434507250085,0.9996063953679022,0.060546875,-0.00390625,-0.369140625,-0.10800095461308956,0.28605984151363373,-0.07585430145263672
1374,386000000,imu2_frame,0.0054571280106574865,0.0033001683848609357,-0.032375862053280635,0.9994554178145285,0.060546875,-0.00390625,-0.369140625,-0.4437914043664932,0.10641279816627502,-0.11444854736328125
1374,411000000,imu2_frame,0.008004276643601056,0.0065844461301221525,-0.03360719007967916,0.9993813753515324,0.1484375,0.07421875,-0.09765625,-0.37783297896385193,0.058898940682411194,-0.1131439208984375
1374,436000000,imu2_frame,0.011386536556437449,0.008462350735922544,-0.03813511553254664,0.9991718812939995,0.236328125,-0.041015625,-0.359375,-0.33795295655727386,-0.005144432187080383,-0.11130905151367188
1374,461000000,imu2_frame,0.016774490412324178,0.007724026767844251,-0.04262911735230521,0.9989202742139434,0.236328125,-0.041015625,-0.359375,-0.003171265125274658,0.08124056458473206,-0.034358978271484375
1374,486000000,imu2_frame,0.018343138667870747,0.00928328412083602,-0.04719336900490483,0.9986741890234823,0.236328125,-0.041015625,-0.359375,-0.008888572454452515,-0.06045451760292053,-0.06791973114013672
1374,511000000,imu2_frame,0.01570263713660319,0.010092253724678502,-0.041951588021982414,0.9989452626966839,-0.021484375,0.02734375,0.421875,0.002912357449531555,-0.009279817342758179,-0.06937026977539062
1374,536000000,imu2_frame,0.013252009870997245,0.00993520884620953,-0.04565258146214156,0.9988200627066939,0.00390625,0.013671875,-0.294921875,-0.0012294203042984009,0.03919488191604614,-0.07081890106201172
1374,561000000,imu2_frame,0.01571727983217128,0.01066949614065094,-0.049313062397879866,0.9986026991970953,0.00390625,0.013671875,-0.294921875,-0.02267661690711975,0.10582968592643738,0.04806041717529297
1374,586000000,imu2_frame,0.017864441083159148,0.009586614760952109,-0.052947411836762465,0.9983914713888534,0.00390625,0.013671875,-0.294921875,0.0766725093126297,0.14175337553024292,0.1623220443725586
1374,611000000,imu2_frame,0.01940013267137399,0.005424572702794651,-0.0515574363667477,0.9984668445264538,-0.033203125,-0.22265625,0.111328125,-0.0034824013710021973,0.10729974508285522,0.16221904754638672
1374,636000000,imu2_frame,0.02140786897848964,0.003708436213520112,-0.053641677025892495,0.9983238558366216,-0.03125,-0.134765625,-0.166015625,-0.03409136086702347,0.06659585237503052,0.1635141372680664
1374,661000000,imu2_frame,0.018481458723756707,0.0015387681258750945,-0.05574785903891492,0.9982726301410223,-0.03125,-0.134765625,-0.166015625,0.034541089087724686,-0.2222405970096588,0.2039785385131836
1374,686000000,imu2_frame,0.016750000946636267,-0.0011743805128147666,-0.050162503697681673,0.9985999106356254,0.0703125,-0.185546875,0.451171875,-0.022124710958451033,-0.19138935208320618,0.20276737213134766
1374,711000000,imu2_frame,0.01508076591946913,-0.0030134388401138264,-0.0445768028016658,0.9988875804301605,0.0703125,-0.185546875,0.451171875,-0.10038553178310394,-0.2775527834892273,-0.14577674865722656
1374,736000000,imu2_frame,0.012717426063147559,-0.0016595130430023513,-0.0445314054777472,0.9989256564013985,-0.005859375,0.03125,0.00390625,-0.07602138072252274,-0.23023582994937897,-0.1471843719482422
1374,761000000,imu2_frame,0.011125702761571212,-0.0032441581832494924,-0.04445072094340577,0.9989443566001835,-0.005859375,0.03125,0.00390625,0.2392885684967041,-0.1614713817834854,0.039725303649902344
1374,786000000,imu2_frame,0.009824500359150246,-0.005021524910194401,-0.04436987043958801,0.9989542422340694,-0.005859375,0.03125,0.00390625,0.20343568921089172,-0.09853920340538025,0.04338550567626953
1374,811000000,imu2_frame,0.009351208698045479,-0.008606658345400277,-0.04552216382409071,0.9988824820411978,0.0625,-0.109375,-0.09375,0.13324204087257385,-0.09258748590946198,0.044162750244140625
1374,836000000,imu2_frame,0.009305051415810646,-0.011912336150120297,-0.04661050614461288,0.998798765008517,0.123046875,-0.1015625,-0.08984375,0.06887401640415192,-0.09486591815948486,0.045472145080566406
1374,861000000,imu2_frame,0.011279451006391147,-0.010789710026469886,-0.04775529924750228,0.9987370963052894,0.123046875,-0.1015625,-0.08984375,-0.09855020046234131,-0.019337311387062073,0.00670623779296875
1374,886000000,imu2_frame,0.01322156403437336,-0.009656594514373198,-0.04890820627466521,0.9986690782165356,0.123046875,-0.1015625,-0.08984375,-0.11336779594421387,-0.017331957817077637,0.042339324951171875
1374,911000000,imu2_frame,0.01262487235176534,-0.008023679406442668,-0.048051334435708186,0.9987328483762973,-0.021484375,-0.068359375,0.072265625,-0.08228328824043274,-0.004004120826721191,0.041473388671875
1374,936000000,imu2_frame,0.011667861602717919,-0.006030527438676468,-0.04865867850700949,0.9987291057891436,-0.072265625,-0.044921875,-0.044921875,-0.04413212090730667,0.016480401158332825,0.04047203063964844
1374,961000000,imu2_frame,0.00966355230681299,-0.008799590895573523,-0.049198319903556206,0.9987035136994119,-0.072265625,-0.044921875,-0.044921875,0.09141559898853302,-0.025237515568733215,0.0013761520385742188
1374,988000000,imu2_frame,0.0062327557328468435,-0.010529430873895679,-0.04978596319630493,0.9986849561849135,-0.072265625,-0.044921875,-0.044921875,0.01535952091217041,-0.03426317870616913,-0.07325458526611328
1375,11000000,imu2_frame,0.0032282835623137617,-0.011619896043851032,-0.05012757030202867,0.9986700070077136,-0.078125,-0.017578125,-0.03125,-0.00882689654827118,0.023250624537467957,-0.07333850860595703
1375,36000000,imu2_frame,0.004781413904261791,-0.011000462168290962,-0.05055795156724291,0.9986490982554806,-0.0703125,-0.001953125,-0.03125,0.004831746220588684,-0.006551913917064667,-0.07336902618408203
1375,61000000,imu2_frame,0.0016329040114774864,-0.01202257543675798,-0.05092755054632863,0.998628647646215,-0.0703125,-0.001953125,-0.03125,0.403659388422966,-0.7508744485676289,0.1220083236694336
1375,86000000,imu2_frame,0.0005516421952820517,-0.01439198385532354,-0.051153233261894665,0.9985869582657539,0.099609375,-0.099609375,-0.021484375,0.3563455641269684,-0.7321895901113749,0.12318611145019531
1375,111000000,imu2_frame,0.0030001576673943796,-0.013540662932262422,-0.051424941718643175,0.9985805550232588,0.099609375,-0.099609375,-0.021484375,-0.046446293592453,-0.013578809797763824,-0.033359527587890625
1375,136000000,imu2_frame,0.0024608199982374414,-0.011602405922103886,-0.05071950303923875,0.998642508885541,0.005859375,-0.0390625,0.056640625,-0.00920279324054718,-0.0009458884596824646,-0.03436851501464844
1375,161000000,imu2_frame,0.004954683929499845,-0.011616321311826744,-0.05004222926368397,0.9986672556345583,0.005859375,-0.0390625,0.056640625,-0.04613557457923889,0.1419162079691887,-0.03790760040283203
1375,186000000,imu2_frame,0.006570023570946509,-0.014051791164830067,-0.049343702948288305,0.9986613945350488,0.005859375,-0.0390625,0.056640625,0.02500090003013611,0.0300682932138443,0.0027408599853515625
1375,211000000,imu2_frame,0.007667344686035012,-0.015664042037791735,-0.048196335804665626,0.9986856176132246,-0.05859375,0.00390625,0.09375,-0.005592703819274902,0.007440164685249329,0.0039825439453125
1375,236000000,imu2_frame,0.009112500575589978,-0.013983305654201255,-0.04802799892657092,0.9987065338803739,-0.048828125,0.017578125,0.017578125,0.028543293476104736,-0.01914578676223755,0.003482818603515625
1375,261000000,imu2_frame,0.006044668135105804,-0.014163791298379271,-0.04777731361649787,0.9987392939635364,-0.048828125,0.017578125,0.017578125,0.022101104259490967,-0.07264110445976257,-0.03248310089111328
1375,286000000,imu2_frame,0.003323704735627803,-0.015249890261212344,-0.047526656378470894,0.9987480216587836,-0.048828125,0.017578125,0.017578125,-0.0016622841358184814,0.018601298332214355,-0.036263465881347656
1375,311000000,imu2_frame,0.005411805832062646,-0.015055306814433235,-0.04710637478590545,0.9987617531468098,-0.033203125,0.017578125,0.037109375,0.004027873277664185,-0.021861031651496887,-0.036022186279296875
1375,336000000,imu2_frame,0.0025978064034270247,-0.015281784159008995,-0.04712008270597479,0.9987689503987346,-0.029296875,0.017578125,-0.00390625,-0.0029862523078918457,0.03286352753639221,-0.03632831573486328
1375,361000000,imu2_frame,0.0021747196165537897,-0.012543478527597272,-0.047180956809313904,0.9988052307910561,-0.029296875,0.017578125,-0.00390625,-0.02804715931415558,0.004566647112369537,-0.0339508056640625
1375,386000000,imu2_frame,0.004007025912789038,-0.011093198789329193,-0.047264249800979125,0.998812782945185,-0.029296875,0.017578125,-0.00390625,0.0019626766443252563,0.009174458682537079,-0.038306236267089844
1375,411000000,imu2_frame,0.005990326041153676,-0.01206690535592254,-0.046559408137780305,0.9988246729546241,-0.029296875,-0.013671875,0.05859375,-0.015300855040550232,-0.03028208017349243,-0.03747749328613281
1375,436000000,imu2_frame,0.0037151017526706478,-0.010991374776768545,-0.04671350293291786,0.9988409464690662,-0.005859375,-0.009765625,-0.013671875,0.003634914755821228,0.015084311366081238,-0.03839397430419922
1375,461000000,imu2_frame,0.005407891592711036,-0.012878793697711732,-0.04689695040419925,0.9988020661893923,-0.005859375,-0.009765625,-0.013671875,0.08164027333259583,0.09354925155639648,0.0018510818481445312
1375,486000000,imu2_frame,0.007854667039108143,-0.015563375142010564,-0.04331986824256768,0.998909142302412,0.05859375,-0.072265625,0.287109375,0.030888378620147705,0.04438985884189606,0.003977775573730469
1375,511000000,imu2_frame,0.010502614019459509,-0.018013616300765933,-0.039748291021284694,0.9989921311438917,0.05859375,-0.072265625,0.287109375,0.14077526330947876,0.22232107818126678,0.08466148376464844
1375,536000000,imu2_frame,0.013580375685104326,-0.0200366533142191,-0.036291230938415575,0.9990480731562378,0.087890625,-0.04296875,0.27734375,0.10272228717803955,0.16198760271072388,0.0876150131225586
1375,561000000,imu2_frame,0.012145704630045872,-0.020140258537393926,-0.03277217663318467,0.9991860869146498,0.087890625,-0.04296875,0.27734375,-0.057458966970443726,-0.2696540057659149,-0.03021240234375
1375,586000000,imu2_frame,0.011842872300688157,-0.018630269317064543,-0.029293260921300118,0.9993270557257217,0.087890625,-0.04296875,0.27734375,-0.14229893684387207,-0.10528779029846191,-0.03149890899658203
1375,611000000,imu2_frame,0.00969250216912728,-0.015871193671167263,-0.031421883543880584,0.9993331906064707,-0.0625,0.052734375,-0.169921875,-0.08923307061195374,-0.06236414611339569,-0.034264564514160156
1375,636000000,imu2_frame,0.007240028230408479,-0.01316801806569631,-0.0327516572669711,0.9993505462237517,-0.08984375,0.044921875,-0.10546875,-0.037751466035842896,-0.01314157247543335,-0.03661060333251953
1375,661000000,imu2_frame,0.003959424473899525,-0.013758370324903586,-0.03404212185413736,0.9993178494070375,-0.08984375,0.044921875,-0.10546875,0.0620061457157135,-0.06696663051843643,-0.037018775939941406
1375,686000000,imu2_frame,0.0053600302607398065,-0.013420228137069423,-0.03540537154351669,0.9992685460967029,-0.08984375,0.044921875,-0.10546875,0.03454291820526123,0.36648425459861755,-0.0720987319946289
1375,711000000,imu2_frame,0.008080437765099107,-0.01417269744712848,-0.036410788003012264,0.9992037308224967,0.01953125,-0.033203125,-0.078125,0.02190452814102173,0.3125578612089157,-0.07097911834716797
1375,736000000,imu2_frame,0.010937671876856481,-0.015155430888840625,-0.03863853582961414,0.9990784472689977,0.029296875,-0.056640625,-0.17578125,0.005257219076156616,0.25541895627975464,-0.06935310363769531
1375,761000000,imu2_frame,0.00884785920703436,-0.015424098829804889,-0.04080462484396725,0.9990089064438236,0.029296875,-0.056640625,-0.17578125,-0.04023519158363342,-0.20461291074752808,-0.030938148498535156
1375,786000000,imu2_frame,0.006749509266029959,-0.016526586309942855,-0.042959223563839355,0.9989173244970775,0.029296875,-0.056640625,-0.17578125,0.050157248973846436,-0.31754377484321594,0.008172988891601562
1375,811000000,imu2_frame,0.004265227737746009,-0.016713619193393568,-0.04584333667244294,0.9987997052705514,-0.00390625,0.005859375,-0.234375,0.04469794034957886,-0.27012521028518677,0.007760047912597656
1375,836000000,imu2_frame,0.00176832535908155,-0.016584925041580587,-0.04872866259556171,0.9986727846138781,-0.00390625,0.005859375,-0.234375,0.006051421165466309,-0.18312961608171463,-0.035587310791015625
1375,861000000,imu2_frame,0.004264768318770868,-0.016687744071297916,-0.05169532558465569,0.9985143585656114,-0.00390625,0.005859375,-0.234375,0.0067212581634521484,0.18895936012268066,0.0038366317749023438
1375,886000000,imu2_frame,0.006667685668976669,-0.01714405547974824,-0.05161540903547741,0.9984976078487254,-0.005859375,-0.01953125,0.009765625,0.00023826956748962402,0.14162681996822357,0.0046520233154296875
1375,911000000,imu2_frame,0.004095373127437359,-0.01765765592603488,-0.05145247745500025,0.9985109301704653,-0.005859375,-0.01953125,0.009765625,0.026663392782211304,-0.19144287705421448,0.004460334777832031
1375,936000000,imu2_frame,0.0017354319098805,-0.01810070759590331,-0.05116238322018591,0.9985247934847911,0.01171875,-0.017578125,0.01953125,0.01562759280204773,-0.14572486653923988,0.0045013427734375
1375,961000000,imu2_frame,-0.0005542384411012535,-0.01769012281201751,-0.05087433790610152,0.9985482232307371,0.01171875,-0.017578125,0.01953125,-0.017715901136398315,-0.061461363453418016,-0.030996322631835938
1375,986000000,imu2_frame,-0.0007942370411270756,-0.015444163238602114,-0.05062198115470579,0.9985981484227548,0.01171875,-0.017578125,0.01953125,-0.08740860223770142,-0.019310180854517967,-0.03244495391845703
1376,11000000,imu2_frame,0.0018363888919260796,-0.01575178204613136,-0.05041422297799718,0.9986024810502593,0.01171875,-0.017578125,0.01953125,-0.012693822383880615,0.46816257014870644,0.006859779357910156
1376,36000000,imu2_frame,0.004484735982542407,-0.0164985650939728,-0.051231675702838646,0.9985404347835324,0.013671875,-0.0546875,-0.0625,-0.02456936240196228,0.4154731556773186,0.0076580047607421875
1376,61000000,imu2_frame,0.0022575584307053197,-0.017964528654149606,-0.051969081874888044,0.9984845485380569,0.013671875,-0.0546875,-0.0625,0.05792006850242615,-0.19512369856238365,-0.06977367401123047
1376,86000000,imu2_frame,0.00017888543971460074,-0.017519585785014734,-0.052711432501783013,0.9984560766491088,0.013671875,-0.0546875,-0.0625,-0.013620138168334961,-0.002011515200138092,-0.03502464294433594
1376,111000000,imu2_frame,-0.0010631681147690477,-0.014095797991963574,-0.05772572799812736,0.9982323970296775,-0.08984375,0.0703125,-0.400390625,0.05187946557998657,0.024371103849262,-0.03711891174316406
1376,136000000,imu2_frame,-0.0013621001029013138,-0.01571751074711353,-0.05912231521311064,0.9981260723891876,-0.1015625,0.05078125,-0.109375,0.019894063472747803,0.027942229993641376,-0.03616046905517578
1376,161000000,imu2_frame,-0.00014059546176352044,-0.015611857136314663,-0.060546215310558704,0.998043288620909,-0.1015625,0.05078125,-0.109375,0.023388296365737915,0.0819223802536726,0.0067081451416015625
1376,186000000,imu2_frame,-0.0038346972311405062,-0.014636319969846944,-0.061891573813505116,0.9979681890349879,-0.1015625,0.05078125,-0.109375,0.002812325954437256,-0.18899570032954216,0.0064182281494140625
1376,211000000,imu2_frame,-0.006687621764461538,-0.014847256136883933,-0.06563425094392024,0.9977108698432486,-0.03125,-0.02734375,-0.302734375,-0.005168497562408447,-0.13471749424934387,0.007126808166503906
1376,236000000,imu2_frame,-0.009446801353734317,-0.014858320451650446,-0.06983503201706326,0.9974031564822297,-0.025390625,-0.021484375,-0.33984375,-0.009610474109649658,-0.08219797909259796,0.00800323486328125
1376,261000000,imu2_frame,-0.007239169812884326,-0.015489067335694476,-0.07411479589706824,0.9971031442346507,-0.025390625,-0.021484375,-0.33984375,0.01574718952178955,0.2905307561159134,0.08187675476074219
1376,286000000,imu2_frame,-0.005369691358197475,-0.014473067652479415,-0.07837928926042055,0.9968040849346855,-0.025390625,-0.021484375,-0.33984375,0.0027386248111724854,-0.011297307908535004,-0.07542991638183594
1376,311000000,imu2_frame,-0.00442761710467337,-0.016922361318484083,-0.08264296002131814,0.996425697708111,-0.025390625,-0.021484375,-0.33984375,0.10855832695960999,0.07843223586678505,0.04308032989501953
1376,336000000,imu2_frame,-0.003062359411198808,-0.01918236902096776,-0.08366758680024304,0.9963043679481707,0.00390625,-0.009765625,-0.080078125,0.06672924757003784,0.04779837280511856,0.044475555419921875
1376,361000000,imu2_frame,-0.005283123188550736,-0.018283323728923016,-0.08461766679394386,0.9962317296438349,0.00390625,-0.009765625,-0.080078125,-0.0366537868976593,-0.09923534840345383,0.009023666381835938
1376,386000000,imu2_frame,-0.0032655979069375458,-0.016860935444779228,-0.08564393669960449,0.9961777757171815,0.00390625,-0.009765625,-0.080078125,-0.27129065990448,0.2853623703122139,0.042865753173828125
1376,411000000,imu2_frame,-0.0010331319013887098,-0.015759493504422635,-0.08667457208284411,0.996111484502219,0.00390625,-0.009765625,-0.080078125,-0.09376218914985657,0.1301346244290471,-0.036149024963378906
1376,436000000,imu2_frame,0.0016832041119459783,-0.015176666105900932,-0.08706325684596754,0.9960857517991114,0.048828125,-0.05078125,-0.029296875,-0.0777912437915802,0.07811742648482323,-0.03646659851074219
1376,461000000,imu2_frame,-0.0002589544386345479,-0.01597022434426365,-0.0873818767423515,0.9960468324802689,0.048828125,-0.05078125,-0.029296875,0.016744345426559448,-0.23317390121519566,0.0030241012573242188
1376,486000000,imu2_frame,-0.0020694988048058746,-0.015857812142374573,-0.0876997509195015,0.9960185744540165,0.048828125,-0.05078125,-0.029296875,-0.058382511138916016,-0.19783048424869776,-0.0321197509765625
1376,511000000,imu2_frame,-0.004563851804372834,-0.01542962067534087,-0.08778411078140379,0.9960095621814286,-0.009765625,-0.0390625,-0.009765625,-0.05432671308517456,-0.1485592946410179,-0.032057762145996094
1376,536000000,imu2_frame,-0.006301111889818113,-0.014384288422090982,-0.08905009322017782,0.9959033432683211,0.041015625,0.00390625,-0.10546875,-0.03708198666572571,-0.11331165581941605,-0.03229808807373047
1376,561000000,imu2_frame,-0.0033051949407925593,-0.013934931384458008,-0.09038993391781351,0.9958034711829674,0.041015625,0.00390625,-0.10546875,-0.06224137544631958,0.21158989146351814,-0.03701591491699219
1376,586000000,imu2_frame,-0.002347793468566577,-0.011474028757654442,-0.09169647964452157,0.9957181278608415,0.041015625,0.00390625,-0.10546875,-0.2040950506925583,0.005598830059170723,0.0827493667602539
1376,611000000,imu2_frame,-0.0017018876631211992,-0.008928004033786944,-0.0935648158560818,0.995571704879248,0.025390625,0.0078125,-0.150390625,-0.15341947972774506,-0.0027401577681303024,0.08168315887451172
1376,636000000,imu2_frame,-0.0015776654097524772,-0.006333261357402402,-0.09582543619179269,0.995376756083387,-0.0078125,0.0078125,-0.181640625,-0.10274258255958557,-0.0006978753954172134,0.0809011459350586
1376,661000000,imu2_frame,-0.002408483925157867,-0.008616238221963416,-0.09808301342984319,0.9951380216435337,-0.0078125,0.0078125,-0.181640625,0.12074705958366394,-0.024356825277209282,-0.0746164321899414
1376,686000000,imu2_frame,-0.003177197707212697,-0.01090898803439995,-0.10109287438854844,0.9948121079594155,-0.005859375,0.0078125,-0.2421875,0.07455696165561676,-0.014461532235145569,-0.07365703582763672
1376,711000000,imu2_frame,-0.0007151637080513399,-0.011044449332770979,-0.10413317412338115,0.994501780152653,-0.005859375,0.0078125,-0.2421875,-0.001312553882598877,0.16329649649560452,-0.07378673553466797
1376,736000000,imu2_frame,0.0017283562147054267,-0.01059222368295357,-0.10646867490914129,0.9942581349153433,-0.01171875,0.056640625,-0.185546875,0.012581750750541687,0.11624043062329292,-0.0739297866821289
1376,761000000,imu2_frame,-0.0008118687247150393,-0.010031721491476568,-0.10874810075927703,0.9940183881671111,-0.01171875,0.056640625,-0.185546875,0.05726173520088196,-0.25164354452863336,-0.03513908386230469
1376,786000000,imu2_frame,-0.003153455123526529,-0.01030641390770655,-0.11103156701221623,0.9937584337654491,-0.01171875,0.056640625,-0.185546875,0.04685854911804199,-0.05486220493912697,0.03937053680419922
1376,811000000,imu2_frame,-0.004765016110887643,-0.01145826996009322,-0.11355569159931338,0.9934541295784051,0.033203125,0.0234375,-0.205078125,0.020818978548049927,-0.026651017367839813,0.04011058807373047
1376,836000000,imu2_frame,-0.006613889010388624,-0.012671229928613791,-0.11602914429728779,0.9931429575231823,0.021484375,0.0078125,-0.201171875,-0.007082343101501465,0.0059073492884635925,0.041092872619628906
1376,861000000,imu2_frame,-0.004552692956672152,-0.010833471187062484,-0.11853740502760012,0.9928800494008347,0.021484375,0.0078125,-0.201171875,0.033101439476013184,-0.03049328923225403,0.039798736572265625
1376,886000000,imu2_frame,-0.006189963266139658,-0.012352257467602986,-0.12101401770520086,0.9925546401126053,0.021484375,0.0078125,-0.201171875,0.03867274522781372,-0.041936226189136505,0.04083061218261719
1376,911000000,imu2_frame,-0.007843688616524052,-0.01358716947663145,-0.12445585388147197,0.9921011066464618,0.025390625,0.021484375,-0.279296875,0.010394394397735596,-0.013756096363067627,0.04191112518310547
1376,936000000,imu2_frame,-0.009753973090998064,-0.014970626788495015,-0.12701627525576967,0.9917396866933631,0.0234375,-0.013671875,-0.208984375,-0.02146431803703308,0.019105762243270874,0.04334068298339844
1376,961000000,imu2_frame,-0.00758404552593574,-0.013536825569497549,-0.12961729943086253,0.9914426823045352,0.0234375,-0.013671875,-0.208984375,0.01141124963760376,-0.020132102072238922,0.04180622100830078
1376,989000000,imu2_frame,-0.004482977255216332,-0.01333008752839846,-0.13254820832587816,0.9910767801492547,0.0234375,-0.013671875,-0.208984375,-0.13313671946525574,0.4155913218855858,0.005809783935546875
1377,11000000,imu2_frame,-0.0024458665048174228,-0.012281779879022538,-0.13547837653588896,0.9907011583273958,-0.0234375,0.05859375,-0.265625,-0.10759997367858887,0.37812159676104784,0.005008697509765625
1377,36000000,imu2_frame,-0.00015764230842842534,-0.011290300122197396,-0.1391411883157372,0.9902081770951692,-0.025390625,0.048828125,-0.29296875,-0.08224232494831085,0.33562500588595867,0.004435539245605469
1377,61000000,imu2_frame,-0.00024205189020323357,-0.008140887340998876,-0.14277435675745712,0.9897217540383145,-0.025390625,0.048828125,-0.29296875,-0.02145245671272278,0.001494184136390686,-0.03582286834716797
1377,86000000,imu2_frame,-2.585842349445111e-05,-0.005672038232848403,-0.14481280302584718,0.9894428125937468,-0.02734375,-0.001953125,-0.1640625,0.026943817734718323,0.00397565308958292,-0.036490440368652344
1377,111000000,imu2_frame,0.0017519653627351519,-0.006991831076323478,-0.14685393601510682,0.9891319256764683,-0.02734375,-0.001953125,-0.1640625,0.08468784391880035,0.19605566561222076,-0.036103248596191406
1377,136000000,imu2_frame,0.0035088547594800405,-0.008653324039607483,-0.14734985038147064,0.9890403578792426,-0.025390625,-0.03125,-0.0390625,0.05765615403652191,0.15723966807127,-0.035414695739746094
1377,161000000,imu2_frame,0.00546252841821704,-0.009930210861516566,-0.14785066804958366,0.9889447566233506,-0.025390625,-0.03125,-0.0390625,-0.00039318203926086426,0.03757965564727783,-0.034607887268066406
1377,186000000,imu2_frame,0.005616555529065082,-0.007819557777400128,-0.14836001724940548,0.98888655269546,-0.025390625,-0.03125,-0.0390625,0.001855403184890747,0.005474314093589783,-0.0001506805419921875
1377,211000000,imu2_frame,0.0027464606508417577,-0.008174023560642034,-0.14882953684299138,0.9888252683137826,-0.025390625,-0.03125,-0.0390625,0.025777772068977356,-0.20967791229486465,-0.03957176208496094
1377,236000000,imu2_frame,2.8317040005529163e-05,-0.008103941366802236,-0.14934298029777734,0.9887522437740642,-0.017578125,-0.001953125,-0.04296875,0.019236624240875244,-0.157017070800066,-0.03974151611328125
1377,261000000,imu2_frame,-0.0028646530535612457,-0.008082183037736638,-0.1505324190489759,0.9885678848189894,-0.03125,-0.0078125,-0.09765625,0.011174440383911133,-0.10123849660158157,-0.039587974548339844
1377,286000000,imu2_frame,-0.0007549438124441119,-0.008168557767704743,-0.1517627380228963,0.9883829096416172,-0.03125,-0.0078125,-0.09765625,-0.023337960243225098,0.16222830023616552,-0.039710044860839844
1377,311000000,imu2_frame,0.0018483298403983257,-0.007845741415319765,-0.15417123515907646,0.9880112642414407,0.001953125,0.029296875,-0.193359375,-0.009234428405761719,0.11253455653786659,-0.039755821228027344
1377,336000000,imu2_frame,0.004270860511711191,-0.007504154310716595,-0.1564802647269343,0.9876433436061617,-0.013671875,0.041015625,-0.185546875,0.004909887909889221,0.06647010147571564,-0.03956794738769531
1377,361000000,imu2_frame,0.006631323524706627,-0.007551640881221177,-0.15878230551933165,0.9872624664810656,-0.013671875,0.041015625,-0.185546875,0.01156778633594513,0.020464211702346802,-0.039051055908203125
1377,386000000,imu2_frame,0.004146903509886068,-0.007654862041959236,-0.1610486074116275,0.9869080769398809,-0.013671875,0.041015625,-0.185546875,0.11928899586200714,-0.23690930008888245,0.03858184814453125
1377,411000000,imu2_frame,0.001917358875787091,-0.008734948854993707,-0.16321973032783352,0.9865492101436963,0.015625,-0.025390625,-0.177734375,0.09157675504684448,-0.19765598326921463,0.03866386413574219
1377,436000000,imu2_frame,-0.00037356912379148306,-0.009037969134122683,-0.16500206810474705,0.986251739203129,0.00390625,0.029296875,-0.146484375,0.07846362888813019,-0.15476103499531746,0.038700103759765625
1377,461000000,imu2_frame,-0.0022450778279549956,-0.00717500886234844,-0.16679061011840807,0.9859636764352431,0.00390625,0.029296875,-0.146484375,-0.008883297443389893,-0.03481114096939564,0.08117389678955078
1377,486000000,imu2_frame,-0.00440416298176879,-0.0063242534439321065,-0.1682631364283009,0.9857119884053952,0.009765625,-0.017578125,-0.12109375,0.0003783106803894043,0.009370431303977966,0.08123016357421875
1377,511000000,imu2_frame,-0.0018254941753907041,-0.006299913044881611,-0.16976917678081124,0.9854620263012716,0.009765625,-0.017578125,-0.12109375,-0.02585051953792572,0.07285191491246223,0.0027837753295898438
1377,536000000,imu2_frame,0.0005451958132053974,-0.006007916338127724,-0.17033797746230914,0.985367231613092,-0.005859375,-0.01171875,-0.044921875,-0.012341462075710297,0.028088562190532684,0.002655029296875
1377,561000000,imu2_frame,0.00284560408061566,-0.006865949876411938,-0.1709040721934618,0.9852596405909476,-0.005859375,-0.01171875,-0.044921875,0.013993538916110992,0.13319694250822067,0.03817939758300781
1377,586000000,imu2_frame,0.004521619237912985,-0.008762054005437305,-0.17146172830260617,0.9851414401478382,-0.005859375,-0.01171875,-0.044921875,-0.016854971647262573,-0.018782056868076324,-6.198883056640625e-05
1377,611000000,imu2_frame,0.006547976975426756,-0.010217120899588343,-0.17202437381787258,0.9850179436186028,-0.005859375,-0.01171875,-0.044921875,0.0010759085416793823,0.01144234836101532,-0.034239768981933594
1377,636000000,imu2_frame,0.009105944395308315,-0.010437862254666048,-0.17306826557112717,0.9848124228808366,0.005859375,0.044921875,-0.083984375,0.005654811859130859,-0.038728147745132446,-0.03336906433105469
1377,661000000,imu2_frame,0.006786266487017801,-0.009859943145357958,-0.17407424834911717,0.9846597809243693,0.005859375,0.044921875,-0.083984375,0.009095236659049988,0.007707640528678894,-0.03431892395019531
1377,686000000,imu2_frame,0.004719263679301279,-0.008211284244653642,-0.17509285019068638,0.9845063723376707,0.005859375,0.044921875,-0.083984375,-0.005149737000465393,-0.0603288933634758,0.03885364532470703
1377,711000000,imu2_frame,0.002752210555958624,-0.007742913146082856,-0.17591703998893074,0.9843706962697545,0.037109375,-0.009765625,-0.068359375,-0.0028037279844284058,-0.020988725125789642,0.03841972351074219
1377,736000000,imu2_frame,0.001024449028550085,-0.007726215636294327,-0.17765337545861826,0.9840622613860814,0.060546875,-0.0546875,-0.142578125,-0.00834229588508606,0.012057632207870483,0.03828716278076172
1377,761000000,imu2_frame,0.004269004204719781,-0.00740358420541741,-0.1792970947247564,0.9837578535225399,0.08984375,-0.048828125,-0.1328125,0.009312048554420471,-0.0494454950094223,0.038527488708496094
1377,786000000,imu2_frame,0.0030791019694011773,-0.009395986367214774,-0.1809029060892998,0.98345125610764,0.08984375,-0.048828125,-0.1328125,-0.03301851451396942,0.0052390992641448975,0.04291725158691406
1377,811000000,imu2_frame,0.0037175495323541197,-0.0066820861701580294,-0.1838742403119713,0.9829200340310418,-0.01953125,0.0234375,-0.240234375,0.02169552445411682,0.0022129788994789124,0.042148590087890625
1377,836000000,imu2_frame,0.002114853663403317,-0.008636630128226663,-0.1859319105986601,0.982522397014512,-0.115234375,0.021484375,-0.16796875,-0.021465882658958435,0.02565007656812668,0.04255199432373047
1377,861000000,imu2_frame,0.003957620553178376,-0.006948422551673225,-0.18933743609593617,0.9818795200818774,-0.033203125,0.02734375,-0.275390625,0.018005214631557465,-0.004018329083919525,0.04225635528564453
1377,886000000,imu2_frame,0.0029913271981098343,-0.009107640386853896,-0.1940619392943633,0.980942437947043,0.00390625,0.0078125,-0.38671875,-0.026569724082946777,0.005750097334384918,0.042801856994628906
1377,911000000,imu2_frame,0.00552236654836662,-0.009632774017159583,-0.1988172101131213,0.9799736884709073,0.00390625,0.0078125,-0.38671875,0.01272040605545044,0.1849042773246765,-0.07377147674560547
1377,936000000,imu2_frame,0.0077478876859530975,-0.011800058752642194,-0.20132621135561604,0.9794225265282772,0.0078125,-0.12109375,-0.203125,-0.019639253616333008,0.13335488736629486,-0.07228660583496094
1377,961000000,imu2_frame,0.009672714604253554,-0.011925396890809565,-0.20385710265423954,0.9788802302624159,0.0078125,-0.12109375,-0.203125,-0.052921563386917114,0.017398491501808167,-0.11454105377197266
1377,986000000,imu2_frame,0.007058040189815296,-0.013983998091146699,-0.20632378094594708,0.9783583848888067,0.0078125,-0.12109375,-0.203125,-0.024122610688209534,-0.019501924514770508,-0.11044692993164062
1378,11000000,imu2_frame,0.0046874938127307525,-0.014255582706893456,-0.20880120530107563,0.9778429640940617,0.0078125,-0.12109375,-0.203125,-0.07756894826889038,-0.16731205582618713,0.08447074890136719
1378,36000000,imu2_frame,0.002136227030774699,-0.0148124008466168,-0.20908449883205305,0.9777830544979708,-0.009765625,-0.171875,-0.0234375,-0.09859564900398254,-0.12089911103248596,0.08444690704345703
1378,61000000,imu2_frame,0.000980128774378434,-0.014455240531864174,-0.20938152023546877,0.9777266818250567,-0.009765625,-0.171875,-0.0234375,-0.24881646037101746,-0.09742587804794312,-0.03692150115966797
1378,86000000,imu2_frame,0.0026847891334934367,-0.015472992682982783,-0.20970724758542778,0.977638097004656,-0.009765625,-0.171875,-0.0234375,-0.1089029312133789,0.09620445221662521,0.12004566192626953
1378,111000000,imu2_frame,0.004487758526115242,-0.014619886819230762,-0.21101217726529564,0.9773637910105752,-0.00390625,-0.056640625,-0.103515625,-0.08501651883125305,0.06489779055118561,0.1197967529296875
1378,136000000,imu2_frame,0.006337710721468747,-0.013704743335013037,-0.21193308788169415,0.9771675289805032,0.01171875,-0.060546875,-0.072265625,-0.05973578989505768,0.03310735523700714,0.11968135833740234
1378,161000000,imu2_frame,0.007892613241210392,-0.012511658979268186,-0.2128547136170059,0.9769718705965047,0.01171875,-0.060546875,-0.072265625,-0.03031538426876068,0.008154720067977905,0.11950206756591797
1378,186000000,imu2_frame,0.006213356406776738,-0.01141468264460561,-0.21374258647736852,0.976803565691818,0.01171875,-0.060546875,-0.072265625,-0.09042668342590332,-0.10773369669914246,-0.11584854125976562
1378,211000000,imu2_frame,0.005316876484667637,-0.006571627458471758,-0.21734752723225995,0.9760576811556866,-0.001953125,0.232421875,-0.296875,-0.0012297406792640686,-0.07076752185821533,-0.11775398254394531
1378,236000000,imu2_frame,0.0038587502599125795,-0.002338557437296947,-0.22094884944890483,0.9752749597537861,-0.001953125,0.232421875,-0.296875,0.03458372317254543,-0.06413145363330841,0.23281002044677734
1378,261000000,imu2_frame,0.006821721292669629,-0.0003743559277857292,-0.22455337595416125,0.9744378406670349,-0.001953125,0.232421875,-0.296875,0.08531258441507816,0.19654515385627747,-0.03620624542236328
1378,286000000,imu2_frame,0.008016437178163862,-0.002254570468842616,-0.2268278854472006,0.9738992576393727,-0.056640625,-0.046875,-0.1875,0.055123431608080864,0.16552001237869263,-0.03576374053955078
1378,311000000,imu2_frame,0.005597968548765752,-0.004569917092865554,-0.2290982767316173,0.9733764730074869,-0.056640625,-0.046875,-0.1875,0.07483703270554543,-0.029319986701011658,-0.000942230224609375
1378,336000000,imu2_frame,0.004119009253674926,-0.006987226604142259,-0.22988930645263728,0.9731829834136414,0.001953125,-0.029296875,-0.06640625,0.0223105326294899,-0.012097872793674469,-0.0006771087646484375
1378,361000000,imu2_frame,0.006317850947256271,-0.008430601890657051,-0.2307046536965879,0.9729667889881479,0.001953125,-0.029296875,-0.06640625,0.004870504140853882,0.052761197090148926,0.004113197326660156
1378,386000000,imu2_frame,0.005022239077956128,-0.006617437256795346,-0.23152296965167551,0.9727939664504842,0.001953125,-0.029296875,-0.06640625,-0.11872921884059906,-0.10591641068458557,-0.14905166625976562
1378,411000000,imu2_frame,0.007296734646430045,-0.006058122188897875,-0.2323495880622514,0.9725861019705896,0.001953125,-0.029296875,-0.06640625,-0.17187636345624924,0.23610876500606537,-0.00020503997802734375
1378,436000000,imu2_frame,0.009476761587017888,-0.004893671339181125,-0.23184414369724524,0.9726944720743191,-0.013671875,0.013671875,0.04296875,-0.13994144648313522,0.19998063147068024,0.0002613067626953125
1378,461000000,imu2_frame,0.006855630660139164,-0.004924760472212329,-0.23131127552012687,0.9728431738362537,-0.013671875,0.013671875,0.04296875,0.07406548410654068,-0.2073236107826233,-0.03963184356689453
1378,486000000,imu2_frame,0.00917091741385065,-0.005245173747982092,-0.23079153538688338,0.9729458616078834,-0.013671875,0.013671875,0.04296875,0.004118528217077255,-0.026203066110610962,0.04318809509277344
1378,511000000,imu2_frame,0.0064899202801686744,-0.0052914691787604015,-0.23147794738240607,0.9728041124318478,-0.009765625,-0.025390625,-0.056640625,-0.008755065500736237,0.024523019790649414,0.04237651824951172
1378,536000000,imu2_frame,0.008725955201198668,-0.004852146146118594,-0.2326534645507859,0.9725084471695449,-0.021484375,0.00390625,-0.095703125,0.009944945573806763,-0.01606959104537964,0.042954444885253906
1378,561000000,imu2_frame,0.006083596304846701,-0.005440111364159503,-0.23380350420730397,0.9722496163356047,-0.021484375,0.00390625,-0.095703125,-0.013084560632705688,0.031395599246025085,0.042308807373046875
1378,586000000,imu2_frame,0.0034542288313809894,-0.00457692424861384,-0.23496286890479506,0.9719874332025239,-0.021484375,0.00390625,-0.095703125,-0.008594945073127747,-0.14133762568235397,-0.00131988525390625
1378,611000000,imu2_frame,0.001134328647109984,-0.0039584487764864965,-0.2353837621987439,0.9718937845644294,0.0078125,-0.0078125,-0.03515625,-0.007482521235942841,-0.09445036202669144,-0.0016307830810546875
1378,636000000,imu2_frame,0.003668016217938483,-0.004531841219405086,-0.23581764475651992,0.9717798343728247,0.0078125,-0.0078125,-0.03515625,-0.006676770746707916,0.08130928874015808,-0.040360450744628906
1378,661000000,imu2_frame,0.00621384882284389,-0.005046912169939803,-0.23625068290274834,0.9716591643103775,0.0078125,-0.0078125,-0.03515625,-0.0046611204743385315,0.030547544360160828,-0.039772987365722656
1378,686000000,imu2_frame,0.009148423115593444,-0.0050338964839458725,-0.23826825625238826,0.9711432460266267,0.029296875,0.02734375,-0.166015625,0.009549591690301895,-0.025235459208488464,-0.038893699645996094
1378,711000000,imu2_frame,0.007150474697464608,-0.005302015609289584,-0.24026569394918607,0.9706663462040888,0.029296875,0.02734375,-0.166015625,0.03454556316137314,-0.06291618943214417,-0.0004138946533203125
1378,736000000,imu2_frame,0.005047761372785011,-0.005993163524058533,-0.24081839612929098,0.9705385629545141,0.025390625,0.001953125,-0.046875,0.011625945568084717,-0.02631794661283493,-0.000762939453125
1378,761000000,imu2_frame,0.002716333932371312,-0.006725451699612154,-0.24203575079323528,0.9702402203410033,0.015625,-0.021484375,-0.1015625,-0.013137370347976685,0.014320917427539825,-0.0009336471557617188
1378,786000000,imu2_frame,0.002366144269380271,-0.004575452521453572,-0.2432738153542946,0.96994397640198,0.015625,-0.021484375,-0.1015625,-0.012997224926948547,-0.008025221526622772,-0.07956886291503906
1378,811000000,imu2_frame,0.0049951366123044206,-0.005037006687042007,-0.2445129623556405,0.9696200742630735,0.015625,-0.021484375,-0.1015625,-0.009093575179576874,0.01796979457139969,-0.0009794235229492188
1378,836000000,imu2_frame,0.007214822076037201,-0.004781417386727031,-0.24504781930498867,0.9694723568230581,-0.01171875,-0.02734375,-0.04296875,0.00644901767373085,-0.022908121347427368,-0.0004978179931640625
1378,861000000,imu2_frame,0.004814100260915553,-0.00416536698045908,-0.24546079318375894,0.9693856163396463,-0.005859375,0.0546875,-0.03515625,0.0066699013113975525,0.02551194280385971,-0.0011701583862304688
1378,886000000,imu2_frame,0.0024118271157215613,-0.003411215714970305,-0.24587627846244478,0.9692922172321246,-0.005859375,0.0546875,-0.03515625,0.04852219298481941,-0.15584159269928932,0.002285003662109375
1378,911000000,imu2_frame,-0.0005456472673041614,-0.0035751450189562724,-0.24726579612574273,0.968940940756172,-0.03515625,-0.01171875,-0.115234375,0.031211815774440765,-0.10069532133638859,0.0021991729736328125
1378,936000000,imu2_frame,-0.0029565632178476012,-0.003773892242291116,-0.24874567193394537,0.9685569715640957,0.0078125,-0.00390625,-0.123046875,0.015737541019916534,-0.056124452501535416,0.0023927688598632812
1378,961000000,imu2_frame,-0.005147293370676529,-0.0036336124829678415,-0.2503416584127969,0.968137054499212,0.01953125,0.021484375,-0.1328125,0.007610715925693512,-0.014121904969215393,0.002719879150390625
1378,990000000,imu2_frame,-0.0019193619858905691,-0.0029607539834514405,-0.25221681889254444,0.9676643148598288,0.01953125,0.021484375,-0.1328125,-0.08109062165021896,0.1935830246657133,-0.07593822479248047
1379,11000000,imu2_frame,0.00031184979606768524,-0.002115468455517235,-0.2538507618364197,0.9672410342091509,0.0,0.0546875,-0.16015625,-0.054074354469776154,0.15548183023929596,-0.07609176635742188
1379,36000000,imu2_frame,0.0028025472825308323,-0.0023506789728788475,-0.25597961771183075,0.9666752584778411,0.0078125,-0.033203125,-0.17578125,-0.046019818633794785,0.10715672373771667,-0.07591915130615234
1379,61000000,imu2_frame,0.005403259012382515,-0.0018176080699124012,-0.2580592362197605,0.966112276960925,0.005859375,0.015625,-0.171875,-0.02269427850842476,0.060667216777801514,-0.0755462646484375
1379,86000000,imu2_frame,0.007637301729345507,-0.0012291155705418787,-0.26020560640474877,0.9655222438104396,-0.02734375,0.021484375,-0.177734375,2.3087486624717712e-05,0.02148297429084778,-0.0750112533569336
1379,111000000,imu2_frame,0.004903992898645921,-0.0012111743161353624,-0.2623468232566848,0.9649604283272716,-0.02734375,0.021484375,-0.177734375,0.025740381563082337,-0.04011757671833038,-0.0014638900756835938
1379,136000000,imu2_frame,0.0025264016979300516,-0.0020277099581732655,-0.2646743863460862,0.9643323985530657,0.001953125,-0.005859375,-0.193359375,-0.001714080572128296,0.00048054754734039307,-0.0017576217651367188
1379,161000000,imu2_frame,0.003903666225709686,0.0005514854342017335,-0.26719847934510144,0.9636334520394565,-0.00390625,0.03515625,-0.208984375,0.05421417951583862,-0.01205647736787796,-0.0016584396362304688
1379,186000000,imu2_frame,0.0015614677961595432,0.0003298858076812449,-0.26971380652142973,0.9629392065781702,-0.00390625,0.03515625,-0.208984375,0.03787912242114544,-0.04718312248587608,0.04105663299560547
1379,211000000,imu2_frame,0.0027593572847261884,-0.0014633393732489351,-0.2722230383365524,0.9622291109627008,-0.00390625,0.03515625,-0.208984375,0.049659332260489464,0.03796923905611038,-0.07599067687988281
1379,236000000,imu2_frame,0.003586930785102824,-0.0037979786305908547,-0.2741887270191424,0.9616617135258567,-0.0078125,-0.00390625,-0.1640625,0.01033109799027443,0.009874343872070312,-0.07564830780029297
1379,261000000,imu2_frame,0.00449407537764515,-0.005953871492199266,-0.2756613534228335,0.9612258698817079,-0.0234375,-0.00390625,-0.123046875,-0.02515280991792679,-0.018865764141082764,-0.07509422302246094
1379,286000000,imu2_frame,0.002356448384567237,-0.004228773782260939,-0.2771421841339344,0.9608167225838556,-0.0234375,-0.00390625,-0.123046875,-0.12134342640638351,-0.23904073238372803,0.041464805603027344
1379,311000000,imu2_frame,0.00042992763926359646,-0.0019243000571551336,-0.27981355104670336,0.9600523365328314,-0.021484375,0.04296875,-0.22265625,-0.08844796940684319,-0.1904682219028473,0.04108238220214844
1379,336000000,imu2_frame,-0.0013627164769846364,0.0003612778125529307,-0.28299672969851275,0.9591198379045721,-0.0078125,0.05078125,-0.265625,-0.05545249016722664,-0.144328186288476,0.04104423522949219
1379,361000000,imu2_frame,-0.0032268964291534506,0.001511991054650563,-0.28559158319036027,0.958344796319837,0.017578125,-0.025390625,-0.216796875,-0.044377660378813744,-0.10298512876033783,0.04125404357910156
1379,386000000,imu2_frame,-0.0006735809740319793,0.0005682609993673151,-0.2881866063356658,0.9575738631023927,0.017578125,-0.025390625,-0.216796875,-0.008782814256846905,0.03534037992358208,-0.03710365295410156
1379,411000000,imu2_frame,0.001291873826024314,0.0007099178008166005,-0.2903117113780676,0.9569309992447059,-0.046875,0.0078125,-0.177734375,0.004985298961400986,-0.0006049945950508118,-0.03707599639892578
1379,436000000,imu2_frame,0.00323188883841092,0.0006090334149002399,-0.29243289259856287,0.9562803915689547,-0.046875,0.0078125,-0.177734375,-0.024828879162669182,0.19306908175349236,0.0021543502807617188
1379,461000000,imu2_frame,0.005370607949987582,0.00021626248076874908,-0.293827718503197,0.9558432829915126,-0.025390625,-0.005859375,-0.1171875,-0.019800778478384018,0.1508975625038147,0.0025091171264648438
1379,486000000,imu2_frame,0.007553389450025117,-0.0003668986655868634,-0.29438171445546635,0.9556580025759454,-0.017578125,-0.01953125,-0.046875,-0.018076661974191666,0.10678845643997192,0.0030622482299804688
1379,511000000,imu2_frame,0.004945266589339176,0.0003844504174561189,-0.2949535425589788,0.9554987201813228,-0.017578125,-0.01953125,-0.046875,-0.018995054066181183,-0.18389761447906494,0.0024242401123046875
1379,536000000,imu2_frame,0.002296818493410171,0.0016588888264387704,-0.2967790280128324,0.9549419779465286,-0.033203125,0.013671875,-0.15234375,-0.010397735983133316,-0.12699981406331062,0.0020999908447265625
1379,561000000,imu2_frame,-0.00013548976120169546,0.002399559509460327,-0.2975312956139071,0.9547090404343069,-0.00390625,-0.017578125,-0.0625,-0.010695282369852066,-0.07726593501865864,0.0020570755004882812
1379,586000000,imu2_frame,0.0002190522224600165,-0.0002515357450847926,-0.2982768830366417,0.9544793291590126,-0.00390625,-0.017578125,-0.0625,0.020021684234961867,0.013977743219584227,-0.00196075439453125
1379,611000000,imu2_frame,-0.00222290243186594,-0.0013543573757034992,-0.29902080125777236,0.9542430428544066,-0.00390625,-0.017578125,-0.0625,-0.014817856252193451,0.014015737920999527,-0.040892601013183594
1379,636000000,imu2_frame,-0.00023197981312266707,-2.1244834362262375e-05,-0.29885944854665936,0.9542971108352002,-0.017578125,0.00390625,0.013671875,0.021686010994017124,-0.015328054316341877,-0.041024208068847656
1379,661000000,imu2_frame,-0.0024097371179789325,-0.0014035642849238436,-0.29876542997984845,0.9543225036764441,-0.017578125,0.005859375,0.0078125,-0.016817893832921982,0.017223849892616272,-0.04087352752685547
1379,686000000,imu2_frame,-0.0011838088761405904,0.0007949896768912313,-0.2986708033915575,0.9543551319028991,-0.017578125,0.005859375,0.0078125,-0.0077057937160134315,0.007193904370069504,-0.037078857421875
1379,711000000,imu2_frame,0.0004917203375995116,0.0022811989631275464,-0.29880691416464966,0.9543107368094523,-0.04296875,0.005859375,-0.01171875,0.02980067953467369,-0.015379746444523335,-0.03701210021972656
1379,736000000,imu2_frame,-0.0014999374896885846,0.0006803159139468839,-0.2987864567839692,0.9543185739574943,-0.021484375,0.0078125,0.001953125,-0.011694514192640781,0.012422248721122742,-0.03706645965576172
1379,761000000,imu2_frame,0.00041414048780440306,0.0021963429577166274,-0.29889994017859234,0.9542818400904958,-0.03515625,0.0234375,-0.009765625,0.027764152735471725,-0.014423966873437166,-0.037021636962890625
1379,786000000,imu2_frame,-0.001680550668554991,0.0008345333323268369,-0.2990187843816641,0.9542453803348903,-0.03515625,0.0234375,-0.009765625,-0.009881393052637577,0.01669352501630783,0.0020122528076171875
1379,811000000,imu2_frame,0.0006830133985044192,0.0015051683555764085,-0.2990161488714891,0.9542466194202536,-0.0078125,0.005859375,0.0,0.01644277200102806,-0.02347378619015217,0.0019969940185546875
1379,836000000,imu2_frame,-0.0018868484591295443,0.0016849565174366712,-0.2990190749222178,0.9542437809894743,-0.0078125,0.005859375,0.0,0.004775503650307655,-0.009644046425819397,-0.040900230407714844
1379,861000000,imu2_frame,-0.004661982517182071,0.001527474679135573,-0.2989976310522588,0.9542412427500979,-0.02734375,0.0078125,0.001953125,-0.01438067841809243,0.041198477149009705,-0.04055500030517578
1379,886000000,imu2_frame,-0.0023025618257755927,0.002222799325082081,-0.29911463726330345,0.9542118167089743,-0.025390625,0.04296875,-0.009765625,0.012372231110930443,0.0012565366923809052,-0.04082489013671875
1379,911000000,imu2_frame,-0.002949951744419715,0.0003811794881792449,-0.2992388095151703,0.9541736148976491,-0.025390625,0.04296875,-0.009765625,-0.02577053476125002,0.0025628022849559784,-0.0017900466918945312
1379,936000000,imu2_frame,-0.0021122675067808284,0.0028815378590105528,-0.2989989329011027,0.9542467569709363,-0.015625,0.01171875,0.01953125,0.025778472423553467,0.0015536025166511536,-0.001712799072265625
1379,961000000,imu2_frame,-0.002827914987582315,0.0006685509635932479,-0.29893636340128354,0.954268623906732,-0.013671875,0.013671875,0.005859375,-0.019678873009979725,0.0019688569009304047,-0.0017976760864257812
1379,986000000,imu2_frame,-0.002113222836926178,0.0032430058339800814,-0.29885910271987076,0.9542893973653255,-0.013671875,0.013671875,0.005859375,-0.0065387338399887085,0.0036769509315490723,-0.0016698837280273438
1380,11000000,imu2_frame,-0.0027161604825961263,0.0010049127494856829,-0.2987967435588213,0.954312380020946,-0.013671875,0.013671875,0.005859375,-0.012743343599140644,0.001849338412284851,-0.04086112976074219
1380,36000000,imu2_frame,-0.0017451065984564844,0.003300905318012629,-0.29888220290783385,0.954282708327046,-0.005859375,0.0,-0.0078125,0.03575305640697479,-0.002850256860256195,-0.040752410888671875
1380,61000000,imu2_frame,-0.002642546983218256,0.000993143908956819,-0.29898332365782704,0.9542541604756757,0.00390625,0.001953125,-0.0078125,-0.012543698539957404,0.000408027321100235,-0.04086875915527344
1380,86000000,imu2_frame,-0.0017659251833052798,0.0033627774906028122,-0.29906888468388043,0.9542239650363722,0.00390625,0.001953125,-0.0078125,0.03677524998784065,-0.0020902007818222046,-0.0016813278198242188
1380,111000000,imu2_frame,-0.002774428832115895,0.0011127729226642295,-0.29919271417512533,0.9541880234343751,-0.01171875,0.00390625,-0.009765625,-0.011095811612904072,0.003568120300769806,-0.0017881393432617188
1380,136000000,imu2_frame,-0.001559071402997802,0.003253079963443523,-0.29923176903156623,0.9541736399468135,-0.01953125,0.001953125,-0.00390625,0.03593021631240845,-0.006580982357263565,-0.0017080307006835938
1380,161000000,imu2_frame,-0.0028501416492834586,0.0010529186053491197,-0.29921559111574536,0.9541806946738361,-0.009765625,-0.001953125,0.001953125,-0.012656414182856679,0.0046303123235702515,-0.0017824172973632812
1380,186000000,imu2_frame,-0.004957634066120837,0.002587820839283745,-0.2991867646778166,0.9541781829875337,-0.009765625,-0.001953125,0.001953125,0.0036481712013483047,0.013851381838321686,-0.036507606506347656
1380,211000000,imu2_frame,-0.0030378554244020342,0.0013621208691000728,-0.29935400464923606,0.9541363089001611,-0.017578125,0.00390625,-0.013671875,-0.007996627129614353,-0.029121533036231995,-0.036902427673339844
1380,236000000,imu2_frame,-0.005336572551355485,0.002824598461607553,-0.2995121506817263,0.9540733798984968,-0.017578125,0.00390625,-0.013671875,0.005808571353554726,0.022310897707939148,-0.036406517028808594
1380,261000000,imu2_frame,-0.003332845050937012,0.0018618938724978247,-0.2998441446168592,0.953980562922567,-0.017578125,0.025390625,-0.02734375,-0.0004392676055431366,-0.02068764716386795,-0.036834716796875
1380,286000000,imu2_frame,-0.005665279874235591,0.0027082997681631285,-0.2998422543050634,0.9539681295774874,0.001953125,0.00390625,0.0,0.001673087477684021,0.027766019105911255,-0.03634834289550781
1380,311000000,imu2_frame,-0.00360192311162563,0.004214731406040311,-0.29983070491656816,0.9539763155227211,0.001953125,0.00390625,0.0,0.002796519547700882,-0.0018811970949172974,0.002544403076171875
1380,336000000,imu2_frame,-0.005591702913925509,0.0026505264656052326,-0.2999358307382057,0.9539393088699931,-0.00390625,0.0,-0.0078125,-0.038047218695282936,0.02605711668729782,0.0026922225952148438
1380,361000000,imu2_frame,-0.0036087618016132457,0.004240820363651785,-0.2999007080275734,0.953954169551904,0.0,0.00390625,0.001953125,0.00323617085814476,-0.0015965178608894348,0.0025501251220703125
1380,386000000,imu2_frame,-0.006034807116064976,0.004845422817307316,-0.2998812600000958,0.9539451414423937,0.0,0.00390625,0.001953125,0.0002896897494792938,0.008121028542518616,0.0031147003173828125
1380,411000000,imu2_frame,-0.00627028140163295,0.002401294012665475,-0.29987602428143767,0.9539545520722502,0.0,0.00390625,0.001953125,-0.007602483034133911,-0.0018142014741897583,0.0028247833251953125
1380,436000000,imu2_frame,-0.006214289863545568,0.004884103291036908,-0.29985771685654855,0.9539511925555272,-0.009765625,-0.00390625,0.0,0.039024800062179565,0.011693075299263,0.0031642913818359375
1380,461000000,imu2_frame,-0.006377962292946782,0.002447827765296427,-0.2998515662747821,0.953961407992368,-0.01171875,0.001953125,0.001953125,-0.007362581789493561,0.0004661679267883301,0.0028553009033203125
1380,486000000,imu2_frame,-0.004024605659157366,0.0022221579979506364,-0.2998281818767195,0.9539821412980544,-0.01171875,0.001953125,0.001953125,0.002225637435913086,-0.0056769996881484985,-0.036705970764160156
1380,511000000,imu2_frame,-0.00643886850102846,0.0021456185975682854,-0.2998071145557578,0.9539756974656173,0.005859375,0.00390625,0.001953125,-0.013348739361390471,0.03889299929141998,-0.03621864318847656
1380,536000000,imu2_frame,-0.0037571212510639313,0.0021396822620024136,-0.299782201520413,0.9539978707792259,0.015625,-0.001953125,0.001953125,0.0022593699395656586,-0.011149071156978607,-0.03675365447998047
1380,561000000,imu2_frame,-0.0061798618301723025,0.0024598081635486906,-0.2997360688387199,0.9539989767754831,0.00390625,0.00390625,0.00390625,-0.005962318740785122,0.03590381145477295,-0.036253929138183594
1380,586000000,imu2_frame,-0.005563099956147217,0.004931487609698512,-0.29967248010709424,0.9540131744453513,0.00390625,0.00390625,0.00390625,0.004688866436481476,-0.00018306076526641846,-0.03603839874267578
1380,611000000,imu2_frame,-0.006760550607292718,0.0026866554954127144,-0.2998059460785485,0.9539724689600229,-0.0078125,-0.001953125,-0.009765625,-0.04420744255185127,0.00899931788444519,-0.03608512878417969
1380,636000000,imu2_frame,-0.005675502448808088,0.0048949566233629635,-0.29990444123974214,0.953939806379987,-0.0078125,-0.001953125,-0.009765625,0.0033164434134960175,0.0017131119966506958,-0.03602123260498047
1380,661000000,imu2_frame,-0.005532980303728832,0.0023815238289599545,-0.30003634902961723,0.9539087502136607,-0.001953125,-0.001953125,-0.009765625,-0.042731257155537605,-0.01567608118057251,-0.03640937805175781
1380,686000000,imu2_frame,-0.007714866790586313,0.0036393621361417213,-0.300145320278092,0.9538553467842004,-0.001953125,-0.001953125,-0.009765625,0.006968460977077484,0.03238449990749359,0.0033655166625976562
1380,711000000,imu2_frame,-0.005521405933894077,0.004766798565473915,-0.3002483255237842,0.9538331797165127,-0.001953125,-0.001953125,-0.009765625,0.0017830319702625275,-0.001891016960144043,0.00298309326171875
1380,736000000,imu2_frame,-0.007953281815904014,0.003753336205101271,-0.3003070805131683,0.9538020314349019,-0.017578125,0.00390625,-0.00390625,-0.031396809965372086,0.03750205039978027,0.0034551620483398438
1380,761000000,imu2_frame,-0.005642177747671357,0.004706294505639038,-0.3003183693500916,0.9538107221315936,0.0,0.0,-0.001953125,-6.365403532981873e-05,9.59634780883789e-06,0.0029993057250976562
1380,786000000,imu2_frame,-0.008023826081895783,0.005474891346541464,-0.30034214584456687,0.9537820711301045,0.0,0.0,-0.001953125,0.0002783089876174927,0.009861171245574951,-0.039180755615234375
1380,811000000,imu2_frame,-0.005642856647668952,0.004708250453221034,-0.3003649231490671,0.9537960492097765,0.0,0.0,-0.001953125,-3.766641020774841e-05,-0.039026111364364624,-0.039969444274902344
1380,836000000,imu2_frame,-0.00827627608815262,0.0056550197310663115,-0.3006437717142222,0.9536838294400299,-0.0234375,0.0078125,-0.0234375,0.0020948201417922974,0.01564273238182068,-0.039061546325683594
1380,861000000,imu2_frame,-0.006114030001141626,0.00467189040993383,-0.30073897118603116,0.9536754496615241,-0.009765625,0.001953125,-0.0078125,-0.0035376548767089844,-0.03043527901172638,-0.039867401123046875
1380,886000000,imu2_frame,-0.008504422639304496,0.005753312650436401,-0.3008292151252227,0.9536227542987115,-0.009765625,0.001953125,-0.0078125,0.0025487318634986877,0.020484164357185364,9.822845458984375e-05
1380,911000000,imu2_frame,-0.006220364098745823,0.004655729511428379,-0.30099454144313054,0.9535942099628306,0.001953125,-0.00390625,-0.013671875,-0.004502486437559128,-0.028534606099128723,-0.0007829666137695312
1380,936000000,imu2_frame,-0.00845083528779067,0.0057161252251533585,-0.30115395707722,0.9535209507043255,0.001953125,-0.00390625,-0.013671875,0.002105630934238434,0.01928602159023285,7.2479248046875e-05
1380,961000000,imu2_frame,-0.006278721626225725,0.00474531708382871,-0.30117888943531984,0.9535351782598382,-0.009765625,0.0,-0.001953125,-0.003204021602869034,-0.02690991759300232,-0.0007524490356445312
1380,986000000,imu2_frame,-0.0038980369251758558,0.00465625653142364,-0.30119509025226615,0.9535432041555185,-0.009765625,0.0,-0.001953125,0.00915101170539856,-0.03274300694465637,0.0026645660400390625
1381,11000000,imu2_frame,-0.0064775014120262014,0.005139303175433335,-0.30122252244497066,0.953518023694475,-0.009765625,0.0,-0.001953125,0.002961922436952591,-0.020883232355117798,-0.0006265640258789062
1381,36000000,imu2_frame,-0.007257263083619645,0.007585903590002918,-0.3012275192393223,0.9534945033151381,-0.009765625,0.0,-0.001953125,0.008811324834823608,0.008053496479988098,0.004097938537597656
1381,61000000,imu2_frame,-0.006153287078915963,0.005384404011651441,-0.3010798762916196,0.9535638695671027,0.001953125,0.005859375,0.013671875,-0.02569500356912613,-0.025492414832115173,0.0032501220703125
1381,86000000,imu2_frame,-0.00860720537838641,0.00532451719214875,-0.30092572010675483,0.9535938739895911,0.001953125,0.005859375,0.013671875,-0.0060679130256175995,0.019883781671524048,3.910064697265625e-05
1381,111000000,imu2_frame,-0.00605723782860486,0.005364950984402041,-0.3007565251708194,0.9536666292462984,0.001953125,0.005859375,0.013671875,0.009712986648082733,-0.027418941259384155,-0.000682830810546875
1381,136000000,imu2_frame,-0.00859534911245717,0.005316338659482831,-0.30071775381801186,0.9536596295615863,-0.00390625,0.001953125,0.00390625,-0.006108853965997696,0.01960413157939911,3.4332275390625e-05
1381,161000000,imu2_frame,-0.006091361037131207,0.0053085046323352765,-0.30066410099562113,0.9536958705330428,0.0,0.0,0.00390625,0.008474171161651611,-0.027120783925056458,-0.0006866455078125
1381,186000000,imu2_frame,-0.008591476138092495,0.00535133329981671,-0.30062436001754245,0.9536889136053359,0.0,0.0,0.00390625,-0.005414992570877075,0.019732773303985596,-0.03902244567871094
1381,211000000,imu2_frame,-0.006170671552045442,0.0047273886191620896,-0.3005768698018778,0.9537259144793881,0.0,0.0,0.00390625,-0.0028118304908275604,0.04906299710273743,0.038280487060546875
1381,236000000,imu2_frame,-0.003848337216185713,0.004032352826581009,-0.3003868937441134,0.9538011556389074,-0.005859375,-0.0078125,0.015625,-0.00210421159863472,0.001675620675086975,0.03770732879638672
1381,261000000,imu2_frame,-0.001495629717555308,0.005080491580374299,-0.30025852173173884,0.9538431589231643,0.0078125,0.0,0.009765625,0.03125973045825958,-0.03604567050933838,0.03764820098876953
1381,286000000,imu2_frame,-0.0039004584199667847,0.005145895640264571,-0.3001524198885784,0.9538693993504583,0.0078125,0.0,0.009765625,0.018375471234321594,-0.06895764172077179,-0.0011472702026367188
1381,311000000,imu2_frame,-0.006417922919952401,0.005287936959021954,-0.3001834851303388,0.9538452302355528,-0.001953125,0.001953125,-0.001953125,0.006247218698263168,-0.021184876561164856,-0.0006113052368164062
1381,336000000,imu2_frame,-0.004427289749753192,0.003825824924351647,-0.30021113614686357,0.9538548295744637,-0.001953125,0.001953125,-0.001953125,-0.009334959089756012,-0.02781400829553604,-0.03645038604736328
1381,361000000,imu2_frame,-0.00656669782266024,0.004751357569964976,-0.299529407146369,0.9540526386607255,0.00390625,-0.044921875,0.056640625,-0.004527047276496887,0.01746886968612671,-0.035834312438964844
1381,386000000,imu2_frame,-0.005036783895478658,0.006090078091771065,-0.29883105635885976,0.9542733054593294,0.00390625,-0.044921875,0.056640625,-0.005664855241775513,-0.003285720944404602,-0.0007419586181640625
1381,411000000,imu2_frame,-0.0075396123572508906,0.004792952944655135,-0.29816689349664205,0.9544719406405485,0.00390625,-0.044921875,0.056640625,-0.009207591414451599,-0.0032719969749450684,-0.0004024505615234375
1381,436000000,imu2_frame,-0.006300681327152323,0.002146866859315264,-0.29750071545827944,0.9546983904245958,0.00390625,-0.044921875,0.056640625,-0.012201251927763224,-0.0027467459440231323,0.0028095245361328125
1381,461000000,imu2_frame,-0.006143295721682464,0.004555854077729747,-0.2969697472120809,0.9548562579530445,-0.001953125,-0.0078125,0.04296875,0.03374745324254036,0.008296772837638855,0.0030870437622070312
1381,486000000,imu2_frame,-0.00835169868460645,0.003208888681798966,-0.2964697289800524,0.9550003413407787,-0.001953125,-0.0078125,0.04296875,-0.004122202284634113,0.002626657485961914,-0.00039768218994140625
1381,511000000,imu2_frame,-0.007046991159998028,0.0010226207379695625,-0.2959728699443843,0.9551698039716823,-0.001953125,-0.0078125,0.04296875,0.0017608348280191422,0.004677191376686096,-0.0009708404541015625
1381,536000000,imu2_frame,-0.007405240819304729,0.0034256112303356484,-0.29544039181722814,0.9553263329768469,-0.001953125,-0.0078125,0.04296875,-0.033483343198895454,-0.013807222247123718,-0.0006618499755859375
1381,561000000,imu2_frame,-0.0077877234415847756,0.00591553910390428,-0.2953253878755912,0.9553466768858513,-0.01171875,-0.00390625,0.0078125,0.010824374854564667,0.007704406976699829,-9.34600830078125e-05
1381,586000000,imu2_frame,-0.005781351879889406,0.004654698216847825,-0.29523433020600703,0.9553960435456919,-0.01171875,-0.00390625,0.0078125,-0.0011238567531108856,0.002018064260482788,0.003021240234375
1381,611000000,imu2_frame,-0.008295599304892862,0.0054745013184600835,-0.29513982912453657,0.9554023728941783,-0.01171875,-0.00390625,0.0078125,-0.00030752643942832947,0.014631778001785278,-0.03909492492675781
1381,636000000,imu2_frame,-0.005901704090854974,0.004834479239270113,-0.29509159143626257,0.9554385120785759,-0.001953125,0.0,0.00390625,0.0015595555305480957,-0.033767834305763245,-0.039887428283691406
1381,661000000,imu2_frame,-0.008021167797227698,0.0034759095144895743,-0.2950595714067478,0.9554388668258593,-0.001953125,0.0,0.00390625,0.0030287839472293854,-0.0020231902599334717,-0.00046825408935546875
1381,686000000,imu2_frame,-0.005724176208166287,0.0025536845737067055,-0.29501779386851734,0.955471199881393,-0.001953125,0.0,0.00390625,-0.000940428115427494,-0.011177003383636475,0.0027112960815429688
1381,711000000,imu2_frame,-0.008060624764373204,0.0035205604440297837,-0.2949195421482948,0.9554816040309766,-0.001953125,0.001953125,0.0078125,0.0036601312458515167,0.03803083300590515,0.00345611572265625
1381,736000000,imu2_frame,-0.008869112100021703,0.0011768205587903747,-0.2948469787000868,0.9555025971159682,-0.001953125,0.001953125,0.0078125,-0.005699021741747856,0.0005591362714767456,0.0035085678100585938
1381,761000000,imu2_frame,-0.007930178250885048,0.0033860350756211885,-0.2949664160820477,0.9554687124250004,-0.001953125,-0.0078125,-0.01171875,0.04095398634672165,-0.004242390394210815,0.0033969879150390625
1381,786000000,imu2_frame,-0.010464534238139742,0.0030020128504693235,-0.2951093111553564,0.9554014736807954,-0.001953125,-0.0078125,-0.01171875,-0.01992642367258668,0.04087141156196594,0.00035381317138671875
1381,811000000,imu2_frame,-0.008678001051301744,0.001217858714522367,-0.2952661006386917,0.9553748682750279,-0.001953125,-0.0078125,-0.01171875,-0.003905227407813072,-0.0027854740619659424,-0.035617828369140625
1381,836000000,imu2_frame,-0.008147864452004296,0.0035654676822464825,-0.2953840635575255,0.9553371942624879,-0.001953125,-0.0078125,-0.01171875,0.003911886364221573,0.0008659660816192627,-0.00041675567626953125
1381,861000000,imu2_frame,-0.008472913664112824,0.0007009708175890513,-0.295378558502003,0.9553424650622583,0.0,-0.03125,0.001953125,-0.05145590752363205,-0.0096026211977005,-0.0005502700805664062
1381,886000000,imu2_frame,-0.008122583010817953,0.0031418607387310943,-0.2952874265312291,0.9553687707314359,0.005859375,-0.001953125,0.005859375,-0.0038353437557816505,-0.0020529180765151978,-0.00048065185546875
1381,911000000,imu2_frame,-0.010372458030238344,0.004055850783579107,-0.29520968516430135,0.9553675753206335,0.005859375,-0.001953125,0.005859375,0.0002624969929456711,0.006169497966766357,0.004367828369140625
1381,936000000,imu2_frame,-0.008162754745080316,0.003160400633151286,-0.29505147023126627,0.9554412651844056,-0.009765625,-0.0078125,0.013671875,-0.0036788610741496086,-0.04026119410991669,0.00344085693359375
1381,961000000,imu2_frame,-0.010748624057145294,0.004058619762758035,-0.2935249866599491,0.9558823551529634,-0.01953125,-0.01171875,0.126953125,-0.0014616549015045166,0.013184800744056702,0.00452423095703125
1381,986000000,imu2_frame,-0.008557614085678228,0.0035683218952351986,-0.2920075747615541,0.9563710632395189,-0.01953125,-0.01171875,0.126953125,0.0022362545132637024,-0.030590832233428955,-0.03543853759765625
1382,11000000,imu2_frame,-0.006721596961154783,0.0021663469793566908,-0.29049706239954975,0.9568498230194167,-0.01953125,-0.01171875,0.126953125,-0.013274167198687792,-0.033854901790618896,-0.040050506591796875
1382,36000000,imu2_frame,-0.00867321632702606,0.00359769407225926,-0.2904616720763001,0.9568405556677386,0.00390625,-0.0078125,0.001953125,0.002420589327812195,0.010771214962005615,-0.03930187225341797
1382,61000000,imu2_frame,-0.008752998623079456,0.0009884560553729462,-0.2904601197919604,0.9568465534139584,0.00390625,-0.0078125,0.001953125,-0.0077714212238788605,-0.0025500208139419556,0.0034608840942382812
1382,86000000,imu2_frame,-0.008175229010467794,0.0033183585317101976,-0.2904148940692182,0.9568601483132455,0.00390625,-0.0078125,0.001953125,3.220885992050171e-05,-0.0001287609338760376,-0.039504051208496094
1382,111000000,imu2_frame,-0.010727442136727192,0.00419024247922139,-0.2905247096135747,0.9567981798462601,-0.015625,0.0,-0.009765625,0.0018233582377433777,0.05255298316478729,-0.038433074951171875
1382,136000000,imu2_frame,-0.00947035816974574,0.00220323131068735,-0.290662050781466,0.9567763742502429,-0.015625,0.0,-0.009765625,0.010835952125489712,0.017760053277015686,0.0037908554077148438
1382,161000000,imu2_frame,-0.007924622816205778,0.00034919788660152455,-0.29070324345692,0.956780383712837,-0.009765625,-0.001953125,-0.001953125,-0.015062734484672546,-0.021681755781173706,0.003173828125
1382,186000000,imu2_frame,-0.009631288715496502,0.002299937226746011,-0.29070737331639535,0.9567607703422595,-0.009765625,-0.001953125,-0.001953125,0.011720996350049973,0.02131827175617218,-0.0352020263671875
1382,211000000,imu2_frame,-0.007708429262919177,0.003753688106404574,-0.290716346853907,0.9567708689209852,-0.009765625,-0.001953125,-0.001953125,0.010772520676255226,-0.006379768252372742,-0.0005254745483398438
1382,236000000,imu2_frame,-0.008854644562577622,0.001483753384895452,-0.29075882015613835,0.9567542538431555,-0.009765625,-0.001953125,-0.001953125,0.0008609462529420853,0.002155989408493042,0.0035190582275390625
1382,261000000,imu2_frame,-0.00677173606661849,-0.00019002692096130297,-0.29084317415278593,0.9567467562156381,0.01171875,-0.0078125,-0.005859375,-0.018614713102579117,-0.04631246626377106,0.0028400421142578125
1382,286000000,imu2_frame,-0.008618184134569076,0.0012281131974085317,-0.2908975684899879,0.9567145986587693,0.01171875,-0.0078125,-0.005859375,-0.0026003792881965637,-0.0037226229906082153,-0.035637855529785156
1382,311000000,imu2_frame,-0.01021532896359707,0.0029205151031497347,-0.2909481759927698,0.9566798192353478,0.01171875,-0.0078125,-0.005859375,0.019955493975430727,0.035764992237091064,-0.034912109375
1382,336000000,imu2_frame,-0.0083652393324225,0.0009821255442829305,-0.2910360820390687,0.9566750007979068,0.01171875,-0.0078125,-0.005859375,-0.005785739049315453,-0.009855389595031738,0.003330230712890625
1382,361000000,imu2_frame,-0.009905268439109114,0.0027301460338073516,-0.29106394419151344,0.9566484267229328,0.013671875,-0.00390625,-0.00390625,0.018134817946702242,0.028884142637252808,0.0040073394775390625
1382,386000000,imu2_frame,-0.008138752184590188,0.0007239654800577652,-0.2911296493991007,0.956648714956341,0.013671875,-0.00390625,-0.00390625,-0.009340185672044754,-0.015562310814857483,-0.035813331604003906
1382,411000000,imu2_frame,-0.009663861802819175,0.0024875517180594107,-0.291157607779738,0.9566230549665246,0.013671875,-0.00390625,-0.00390625,0.014952913857996464,0.02298945188522339,0.0038900375366210938
1382,436000000,imu2_frame,-0.008520097427732352,-4.0432286954133695e-05,-0.28801367992385973,0.9575883909497693,-0.021484375,-0.060546875,0.263671875,-0.02528618648648262,-0.012622296810150146,0.0033626556396484375
1382,461000000,imu2_frame,-0.010830179374092301,0.0010398143811561223,-0.28483031310684154,0.9585162068198099,-0.021484375,-0.060546875,0.263671875,-0.017378613352775574,-0.002231106162071228,0.0003509521484375
1382,486000000,imu2_frame,-0.009375961749920813,0.002027234767226924,-0.28164747781132227,0.9594699994804338,-0.021484375,-0.060546875,0.263671875,-0.029222890734672546,0.015131130814552307,0.042804718017578125
1382,511000000,imu2_frame,-0.00765091642893187,0.003484096489272327,-0.2812299111432149,0.9596035960894637,0.00390625,-0.025390625,0.033203125,0.0076690614223480225,-0.009209781885147095,0.042387962341308594
1382,536000000,imu2_frame,-0.00781692418497954,0.0006717119883126546,-0.28084916886428773,0.9597198491474113,0.00390625,-0.025390625,0.033203125,0.0712503083050251,0.01751895248889923,0.0031461715698242188
1382,561000000,imu2_frame,-0.007751472529513066,-0.002708969070294083,-0.27980606127372865,0.9600214290497284,0.033203125,-0.064453125,0.087890625,0.00833083689212799,-0.0021672695875167847,0.003261566162109375
1382,586000000,imu2_frame,-0.010084191012130648,-0.003566456657135393,-0.2787308929375346,0.9603096785937275,0.033203125,-0.064453125,0.087890625,0.014828994870185852,-0.11529412865638733,0.004179954528808594
1382,611000000,imu2_frame,-0.008381910379550607,-0.0024677984293204717,-0.2776578411313119,0.960640295223764,0.033203125,-0.064453125,0.087890625,-0.2598007395863533,0.08931250870227814,-0.03562641143798828
