timestamp_sec,timestamp_nsec,frame_id,orientation_x,orientation_y,orientation_z,orientation_w,angular_velocity_x,angular_velocity_y,angular_velocity_z,linear_acceleration_x,linear_acceleration_y,linear_acceleration_z
380,61000000,imu1_frame,0.002462307587352047,-0.06045488125718504,0.024560360460415574,0.9978656888918366,0.007752482789281044,0.005846308545755045,0.021149814208563832,1.109375,-0.078125,9.6875
380,86000000,imu1_frame,0.0025067814634951997,-0.06041957258158518,0.02539635270335387,0.9978467901261796,0.011658732789281045,-1.3066454244954964e-05,0.06607168920856384,1.109375,-0.078125,9.6875
380,111000000,imu1_frame,0.0025329290695990437,-0.06040489034991709,0.02622506821037901,0.997826176891298,0.011542145461388233,-1.2935789702505588e-05,0.06541097231647819,1.1484375,-0.11328125,9.6875
380,136000000,imu1_frame,0.0020790074799521153,-0.061293299390752794,0.024526640696277833,0.9978162421377244,-0.04119222953861176,-0.0722785607897025,-0.1338077776835218,1.1484375,-0.11328125,9.6875
380,161000000,imu1_frame,0.0016332227570828295,-0.062205768922263045,0.02284501689815926,0.9978005211960649,-0.04078030724322565,-0.07155577518180548,-0.13246969990668658,1.2265625,-0.11328125,9.6484375
380,188000000,imu1_frame,0.0011450516314960326,-0.06318832113609502,0.021047771255372695,0.9977789916880113,-0.04037250417079339,-0.07084021742998743,-0.1311450029076197,1.265625,-0.15234375,9.6875
380,211000000,imu1_frame,0.0002167014882571718,-0.06525054884251966,0.02231660535165679,0.9976193101788845,-0.0716225041707934,-0.17826209242998742,0.11494874709238027,1.265625,-0.15234375,9.6875
380,236000000,imu1_frame,-0.0007868940114629521,-0.06742783679434376,0.023682530182284244,0.9974427328860617,-0.07090627912908545,-0.17647947150568755,0.11379925962145647,1.2265625,-0.19140625,9.6875
380,261000000,imu1_frame,-0.001748073621048811,-0.06965998442751299,0.025032514014644906,0.9972551348828849,-0.0701972163377946,-0.17471467679063069,0.11266126702524192,1.41796875,-0.15234375,9.6484375
380,286000000,imu1_frame,-0.002689085109650812,-0.07186729185164362,0.026368174447822856,0.9970619742821772,-0.06949524417441666,-0.17296753002272436,0.1115346543549895,1.45703125,-0.15234375,9.6484375
380,311000000,imu1_frame,-0.00591114169677414,-0.07731294104661976,0.03839682504673064,0.9962496932882305,-0.20035461917441666,-0.43663940502272436,0.9787221543549894,1.45703125,-0.15234375,9.6484375
380,336000000,imu1_frame,-0.007708971068468855,-0.08142406983391433,0.05137751377753311,0.9953245921280087,-0.07926086917441666,-0.33898315502272436,1.0470815293549895,1.45703125,-0.15234375,9.6484375
380,361000000,imu1_frame,-0.009477231448926931,-0.0854879106226797,0.06434662332176261,0.9942140168437175,-0.07926086917441666,-0.33898315502272436,1.0470815293549895,1.45703125,-0.15234375,9.54296875
380,386000000,imu1_frame,-0.010628987313905538,-0.09033863991334798,0.06398870701061833,0.9937964581051779,-0.12613586917441666,-0.39367065502272436,-0.02127784564501051,1.45703125,-0.15234375,9.54296875
380,411000000,imu1_frame,-0.011931700391938908,-0.0953126465849477,0.06364083589203477,0.9933393065482172,-0.12613586917441666,-0.39367065502272436,-0.02127784564501051,1.80078125,-0.49609375,9.65234375
380,436000000,imu1_frame,-0.011727986622548226,-0.09541838954299829,0.06321384331245188,0.9933588451715074,0.01839538082558334,-0.010858155022724369,-0.03690284564501051,1.80078125,-0.49609375,9.65234375
380,461000000,imu1_frame,-0.011745252508974012,-0.09518796418933805,0.06202935769361294,0.9934554138465942,-0.0030889941744166576,0.01843871997727563,-0.0954965956450105,1.80078125,-0.49609375,9.65234375
380,486000000,imu1_frame,-0.011646345330093892,-0.09501509582699266,0.060844655515298676,0.9935463864866423,-0.0030581042326724914,0.018254332777502873,-0.0945416296885604,1.9140625,-0.26953125,9.61328125
380,511000000,imu1_frame,-0.01196840808780497,-0.0944383366511712,0.05944524115401865,0.9936822535813671,-0.03626122923267249,0.05341058277750287,-0.1082135046885604,1.9140625,-0.26953125,9.61328125
380,536000000,imu1_frame,-0.0119699385506478,-0.0942260113027837,0.058519427894614756,0.9937573425761183,-0.008917479232672491,0.022160582777502873,-0.0730572546885604,1.9140625,-0.26953125,9.61328125
380,561000000,imu1_frame,-0.011970738787309292,-0.09403756444803063,0.0576023957318116,0.9938287588370164,-0.008828304440345765,0.021938976949727844,-0.0723266821416748,1.953125,-0.26953125,9.61328125
380,586000000,imu1_frame,-0.011969973739639244,-0.0938957563166659,0.05669358401036062,0.9938944331298238,-0.008740021395942309,0.021719587180230565,-0.07160341532025805,2.03125,-0.26953125,9.578125
380,611000000,imu1_frame,-0.012204563603249785,-0.09306731857957418,0.05445987431022166,0.9940943843165886,-0.03413064639594231,0.08031333718023057,-0.17511904032025805,2.03125,-0.26953125,9.578125
380,636000000,imu1_frame,-0.012723629953140421,-0.0922209871709902,0.05320201182855491,0.994234853896914,-0.04975564639594231,0.08226646218023057,-0.09504091532025805,2.03125,-0.26953125,9.578125
380,661000000,imu1_frame,-0.01323593097670611,-0.09133051969122023,0.051957372746067265,0.994376175157791,-0.049258089931982885,0.08144379755842826,-0.09409050616705547,1.9140625,-0.26953125,9.61328125
380,686000000,imu1_frame,-0.013170475252648629,-0.0912242592930913,0.05155633847096807,0.9944076714615154,-0.0004299649319828864,0.01503754755842826,-0.03159050616705547,1.9140625,-0.26953125,9.61328125
380,711000000,imu1_frame,-0.013126048371387113,-0.09108468593804007,0.05116179119385898,0.9944414301322912,-0.00042566528266305744,0.014887172082843977,-0.031274601105384915,1.83984375,-0.3046875,9.61328125
380,736000000,imu1_frame,-0.013141242089595372,-0.09074615024098506,0.04858103428951346,0.9946015921363409,-0.01995691528266306,0.03441842208284398,-0.2051027261053849,1.83984375,-0.3046875,9.61328125
380,761000000,imu1_frame,-0.013447704284940805,-0.09039004360912511,0.0451403374358062,0.9947920130368894,-0.04925379028266306,0.03832467208284398,-0.27150897610538494,1.83984375,-0.3046875,9.61328125
380,786000000,imu1_frame,-0.013698999546848943,-0.08997510860942678,0.04169519061755577,0.994976546618815,-0.04925379028266306,0.03832467208284398,-0.27150897610538494,1.72265625,-0.19140625,9.61328125
380,811000000,imu1_frame,-0.01385421508897625,-0.08959187376217714,0.03771995921693175,0.9951676047564669,-0.04534754028266306,0.03637154708284398,-0.31447772610538494,1.72265625,-0.19140625,9.61328125
380,836000000,imu1_frame,-0.013960046206831613,-0.08929903206387987,0.03264759834740877,0.9953717568348539,-0.04925379028266306,0.03051217208284398,-0.40236835110538494,1.72265625,-0.19140625,9.61328125
380,861000000,imu1_frame,-0.014123013429117003,-0.08914523298336048,0.027577180013185643,0.995536622666662,-0.04925379028266306,0.03051217208284398,-0.40236835110538494,1.9921875,-0.3046875,9.58203125
380,886000000,imu1_frame,-0.014272173966484307,-0.08891093074868513,0.022506218334320992,0.9956829925131597,-0.04925379028266306,0.03051217208284398,-0.40236835110538494,1.83984375,-0.26953125,9.609375
380,911000000,imu1_frame,-0.013688087849072973,-0.0876785976599266,0.02319909441185346,0.9957845659488275,0.05230870971733694,0.10277779708284397,0.052709773894615085,1.83984375,-0.26953125,9.609375
380,936000000,imu1_frame,-0.013372775978353596,-0.08683758293896923,0.023113591963243092,0.99586453140902,0.02496495971733694,0.07348092208284397,-0.007837101105384917,1.83984375,-0.26953125,9.609375
380,961000000,imu1_frame,-0.013160927276033588,-0.08603812561526979,0.023037123571349582,0.9959385130977737,0.024715310120163574,0.07274611286201554,-0.007758730094331067,1.87890625,-0.4609375,9.58203125
380,986000000,imu1_frame,-0.012654643333264106,-0.08446497562068435,0.023247262711761543,0.9960748429068548,0.05205906012016357,0.13524611286201554,0.013725644905668933,1.87890625,-0.4609375,9.58203125
381,11000000,imu1_frame,-0.012081645966736427,-0.08280103030326647,0.023450641290117816,0.996216889354188,0.05153846951896194,0.13389365173339537,0.013588388456612243,1.6484375,-0.3046875,9.6484375
381,36000000,imu1_frame,-0.011882316053964222,-0.08215659461765343,0.024906755882989264,0.996237300063298,0.02810096951896194,0.05186240173339538,0.11515088845661224,1.6484375,-0.3046875,9.6484375
381,61000000,imu1_frame,-0.01166966592015464,-0.08146559761239416,0.026347716706918343,0.9962594908593341,0.02781995982377232,0.051343777716061426,0.11399937957204612,1.53125,-0.26953125,9.65234375
381,86000000,imu1_frame,-0.011458877125392352,-0.08082731630083483,0.02777354272654521,0.9962751976231501,0.027541760225534596,0.05083033993890081,0.11285938577632566,1.609375,-0.26953125,9.65234375
381,111000000,imu1_frame,-0.010355691155240621,-0.0780715973521913,0.029400123416508432,0.99646034446468,0.10566676022553459,0.22075221493890082,0.12457813577632566,1.609375,-0.26953125,9.65234375
381,136000000,imu1_frame,-0.009167800945423573,-0.07521172590607918,0.03164513660352623,0.9966231650134358,0.11738551022553459,0.23051783993890082,0.17340626077632565,1.609375,-0.26953125,9.65234375
381,161000000,imu1_frame,-0.007973170698084292,-0.07230524430710313,0.03388972607764742,0.9967747321542071,0.11738551022553459,0.23051783993890082,0.17340626077632565,1.45703125,-0.23046875,9.61328125
381,186000000,imu1_frame,-0.0067706424917118755,-0.06936398837554973,0.03613357098490346,0.9969138180227843,0.11738551022553459,0.23051783993890082,0.17340626077632565,1.33984375,-0.19140625,9.65234375
381,211000000,imu1_frame,-0.006334871612769721,-0.06932576632626804,0.03571973174771368,0.9969342547474217,0.033401135225534596,0.0020022149389008134,-0.035578114223674344,1.33984375,-0.19140625,9.65234375
381,236000000,imu1_frame,-0.006087876347957216,-0.0688811596751691,0.035658314655303815,0.996968810043383,0.021682385225534596,0.03520533993890081,-0.006281239223674341,1.33984375,-0.19140625,9.65234375
381,261000000,imu1_frame,-0.005884299125257655,-0.06847309610385521,0.03559954268377026,0.9970002420734225,0.021682385225534596,0.03520533993890081,-0.006281239223674341,1.37890625,-0.26953125,9.50390625
381,286000000,imu1_frame,-0.007468867482324217,-0.06855530114330363,0.03387651719387246,0.9970440152202388,-0.1326144897744654,0.0020022149389008134,-0.12932811422367435,1.37890625,-0.26953125,9.50390625
381,311000000,imu1_frame,-0.009020430068238494,-0.06866457281771138,0.032168945518269605,0.9970802210581593,-0.13128834487672075,0.0019821927895118056,-0.1280348330814376,1.45703125,-0.26953125,9.6484375
381,336000000,imu1_frame,-0.009648239612665093,-0.06839030094811459,0.03189119901054093,0.9971021159511564,-0.04925709487672075,0.029325942789511804,-0.018659833081437597,1.45703125,-0.26953125,9.6484375
381,361000000,imu1_frame,-0.010264623389946352,-0.06810236801545773,0.03161597432979657,0.9971244331298513,-0.048764523927953544,0.029032683361616688,-0.01847323475062322,1.41796875,-0.26953125,9.6484375
381,386000000,imu1_frame,-0.010849086157814705,-0.06781973516331888,0.031341644708677244,0.9971461689034725,-0.04827687868867401,0.028742356528000522,-0.01828850240311699,1.41796875,-0.23046875,9.65234375
381,411000000,imu1_frame,-0.011111274216532137,-0.06845099692231901,0.030754637658096724,0.9971184246959561,-0.02679250368867401,-0.04547639347199948,-0.04563225240311699,1.41796875,-0.23046875,9.65234375
381,436000000,imu1_frame,-0.011212030800889115,-0.0696824710587291,0.0295238756362569,0.9970691973779374,-0.01898000368867401,-0.09430451847199949,-0.098366627403117,1.41796875,-0.23046875,9.65234375
381,461000000,imu1_frame,-0.011348727311850352,-0.0709101703993453,0.0283077912493928,0.9970163604860844,-0.01879020365178727,-0.09336147328727948,-0.09738296112908582,1.45703125,-0.3046875,9.65234375
381,486000000,imu1_frame,-0.011466416008958005,-0.07209364220664467,0.02710299366646772,0.9969636180882456,-0.018602301615269393,-0.09242785855440669,-0.09640913151779495,1.41796875,-0.26953125,9.6484375
381,511000000,imu1_frame,-0.0116641380966218,-0.07253519393221987,0.02468623909709033,0.9969920677331989,-0.030321051615269393,-0.03188098355440669,-0.19211225651779495,1.41796875,-0.26953125,9.6484375
381,536000000,imu1_frame,-0.01156148639699161,-0.07238310043333968,0.02431684420537776,0.9970133950413308,0.006788323384730606,0.01304089144559331,-0.030002881517794962,1.41796875,-0.26953125,9.6484375
381,561000000,imu1_frame,-0.011478143532785316,-0.0722719310291432,0.023951937290203038,0.9970312557319384,0.006720440150883299,0.012910482531137376,-0.02970285270261701,1.4921875,-0.3046875,9.6484375
381,586000000,imu1_frame,-0.011476826206629494,-0.07223421024955612,0.023728634943490035,0.9970393438644056,0.0008610651508832992,0.007051107531137376,-0.01798410270261701,1.4921875,-0.3046875,9.6484375
381,611000000,imu1_frame,-0.011144016884331047,-0.07209186941731369,0.023577825515892468,0.997056999070535,0.0282048151508833,0.014863607531137376,-0.014077852702617012,1.4921875,-0.3046875,9.6484375
381,636000000,imu1_frame,-0.010640136483656996,-0.07197611671652902,0.02302444003032127,0.9970837985241301,0.0399235651508833,0.012910482531137376,-0.047280977702617015,1.4921875,-0.3046875,9.6484375
381,661000000,imu1_frame,-0.010146964161012474,-0.0718630718035258,0.022477010849321116,0.9971095837532382,0.03952432949937447,0.012781377705826002,-0.046808167925590845,1.4921875,-0.3046875,9.6484375
381,686000000,imu1_frame,-0.00964634970543078,-0.07175202933469005,0.021934193088063367,0.9971346375476533,0.03912908620438072,0.012653563928767743,-0.046340086246334934,1.4921875,-0.26953125,9.65234375
381,711000000,imu1_frame,-0.009622923600171978,-0.07235083219191239,0.021436343701202027,0.9971024218159572,6.65862043807211e-05,-0.04398706107123226,-0.040480711246334934,1.4921875,-0.26953125,9.65234375
381,736000000,imu1_frame,-0.009553892496107204,-0.07277033297381386,0.021258741827829046,0.9970763600010537,0.005925961204380721,-0.030315186071232257,-0.015090086246334934,1.4921875,-0.26953125,9.65234375
381,761000000,imu1_frame,-0.009486180561764231,-0.07317912509742984,0.02108305828109152,0.9970508175022177,0.005866701592336914,-0.030012034210519935,-0.014939185383871584,1.4921875,-0.26953125,9.6875
381,786000000,imu1_frame,-0.009438618776124882,-0.07358348414779337,0.02091059058281876,0.9970251403739767,0.005808034576413545,-0.029711913868414735,-0.014789793530032867,1.4921875,-0.3046875,9.6484375
381,811000000,imu1_frame,-0.00941095316958488,-0.07412908334778817,0.020713501400640964,0.9969890991491243,0.0038549095764135446,-0.041430663868414735,-0.016742918530032867,1.4921875,-0.3046875,9.6484375
381,836000000,imu1_frame,-0.009435282792732702,-0.07411344397776519,0.0207283834963591,0.9969897226040014,0.0019017845764135446,0.0034912111315852645,0.0008352064699671318,1.4921875,-0.3046875,9.6484375
381,861000000,imu1_frame,-0.009441593886801488,-0.07409775175483994,0.02074179966330713,0.9969905502242646,0.0018827667306494092,0.0034562990202694115,0.0008268544052674606,1.4921875,-0.26953125,9.65234375
381,886000000,imu1_frame,-0.00929590804364344,-0.07417627604105818,0.020694095587818123,0.9969870714177428,0.01360151673064941,-0.0043562009797305885,-0.00503252059473254,1.4921875,-0.26953125,9.65234375
381,911000000,imu1_frame,-0.009114834914040918,-0.07396317712519611,0.020720425276713313,0.9970040281715962,0.01750776673064941,0.01908129902026941,0.0008268544052674606,1.4921875,-0.26953125,9.65234375
381,936000000,imu1_frame,-0.008670310641890507,-0.07352691820147411,0.02103442736068474,0.9970336859298059,0.04094526673064941,0.036659424020269414,0.02231122940526746,1.4921875,-0.26953125,9.65234375
381,961000000,imu1_frame,-0.008234732799091787,-0.07309966960651397,0.021345559766739904,0.9970621818910748,0.04053581406334292,0.03629282978006672,0.022088117111214785,1.4921875,-0.26953125,9.65234375
381,986000000,imu1_frame,-0.008026877186616661,-0.07292421817271831,0.021470581964245148,0.9970740402581172,0.021004564063342914,0.016761579780066718,0.008416242111214787,1.4921875,-0.26953125,9.65234375
382,11000000,imu1_frame,-0.007682656905490411,-0.07269863855942627,0.021679141970637788,0.9970887119699509,0.03272331406334292,0.020667829780066718,0.014275617111214787,1.4921875,-0.26953125,9.65234375
382,36000000,imu1_frame,-0.007293033468558475,-0.07238221907702527,0.02179226792708242,0.9971121918234208,0.03626326842270949,0.028195526482266052,0.006398485940102638,1.4921875,-0.26953125,9.65234375
382,61000000,imu1_frame,-0.006911546344450258,-0.07207253763044208,0.021904535587223863,0.9971348811306047,0.035900635738482393,0.027913571217443388,0.006334501080701611,1.4921875,-0.26953125,9.65234375
382,86000000,imu1_frame,-0.006538072288758421,-0.07176949149528618,0.022015951037656394,0.9971568039186027,0.03554162938109757,0.027634435505268957,0.006271156069894595,1.4921875,-0.26953125,9.65234375
382,111000000,imu1_frame,-0.006139218687871678,-0.07161370009795903,0.022106010381187976,0.9971685475671647,0.03749475438109757,0.015915685505268957,0.004318031069894595,1.4921875,-0.26953125,9.65234375
382,136000000,imu1_frame,-0.00594266455197879,-0.07136703680777917,0.022230291798290707,0.9971846593895549,0.02186975438109757,0.023728185505268957,0.008224281069894595,1.4921875,-0.26953125,9.65234375
382,161000000,imu1_frame,-0.005750540699068492,-0.07112583419543225,0.02235347144356535,0.9972002653961209,0.02165105683728659,0.023490903650216267,0.00814203825919565,1.4921875,-0.26953125,9.65234375
382,189000000,imu1_frame,-0.005532648271823362,-0.07085478981019354,0.022489719580684683,0.9972177300255124,0.021434546268913723,0.023255994613714102,0.008060617876603693,1.4921875,-0.26953125,9.65234375
382,211000000,imu1_frame,-0.005448740869152273,-0.07091390951415251,0.022485964173688543,0.9972140743468971,0.013622046268913725,-0.0001815053862858967,-0.0017050071233963068,1.4921875,-0.26953125,9.65234375
382,236000000,imu1_frame,-0.00534700742022072,-0.07097227961317339,0.0224812962434178,0.9972105777404155,0.013485825806224587,-0.0001796903324230376,-0.0016879570521623438,1.4921875,-0.26953125,9.65234375
382,261000000,imu1_frame,-0.005247967183207635,-0.07103007963808057,0.022476813520909213,0.9972070895661533,0.013350967548162342,-0.00017789342909880698,-0.0016710774816407203,1.4921875,-0.26953125,9.65234375
382,286000000,imu1_frame,-0.005123308763461347,-0.07057931161220583,0.022619216280797598,0.9972365233656979,0.01725721754816234,0.04083773157090119,0.01004767251835928,1.4921875,-0.26953125,9.65234375
382,311000000,imu1_frame,-0.005103728017818066,-0.07057012233839444,0.02265785363213968,0.9972363969802992,0.007491592548162342,0.005681481570901193,0.0022351725183592797,1.4921875,-0.26953125,9.65234375
382,336000000,imu1_frame,-0.005014556979862217,-0.07121118553869948,0.022606070922894298,0.9971924522527723,0.011397842548162342,-0.04705289342909881,-0.00557732748164072,1.4921875,-0.26953125,9.65234375
382,361000000,imu1_frame,-0.00507110009085003,-0.07139186442545764,0.022395496799323684,0.9971839987488955,-0.00032090745183765805,-0.009943518429098807,-0.01729607748164072,1.4921875,-0.26953125,9.65234375
382,386000000,imu1_frame,-0.005127366957955475,-0.07156948181660858,0.022187076665733014,0.9971756379944355,-0.00031769837731928166,-0.00984408324480782,-0.01712311670682431,1.4921875,-0.26953125,9.65234375
382,411000000,imu1_frame,-0.0054826984449098766,-0.07192391586412013,0.021467986590761177,0.9971639864617414,-0.02766144837731928,-0.02351595824480782,-0.056185616706824315,1.4921875,-0.26953125,9.65234375
382,436000000,imu1_frame,-0.005902366500504773,-0.07235343211028149,0.02000996967647056,0.9971608416123767,-0.03742707337731928,-0.02937533324480782,-0.11477936670682432,1.4921875,-0.26953125,9.65234375
382,461000000,imu1_frame,-0.006315364089947442,-0.07277458952384482,0.018566362248072312,0.9971555874029492,-0.03705280264354609,-0.02908157991235974,-0.11363157303975607,1.4921875,-0.26953125,9.65234375
382,486000000,imu1_frame,-0.006721788737749326,-0.07318750820897493,0.017137026616648596,0.9971482981568321,-0.03668227461711063,-0.028790764113236143,-0.11249525730935851,1.4921875,-0.26953125,9.65234375
382,511000000,imu1_frame,-0.0066971524181614,-0.07227219676499978,0.014483883859032192,0.9972572861767456,-0.007385399617110628,0.07863111088676386,-0.2121046323093585,1.4921875,-0.26953125,9.65234375
382,536000000,imu1_frame,-0.006674339984241464,-0.07138498292334099,0.011830456574545792,0.9973563443905327,-0.007385399617110628,0.07863111088676386,-0.2121046323093585,1.53125,-0.26953125,9.65234375
382,561000000,imu1_frame,-0.006653843498537616,-0.07048621502194768,0.009177105059753417,0.9974483448285927,-0.007385399617110628,0.07863111088676386,-0.2121046323093585,1.4921875,-0.26953125,9.65234375
382,586000000,imu1_frame,-0.006121962197656826,-0.06891923882572104,0.009517611769306116,0.9975580560372125,0.05120835038288937,0.13136548588676386,0.02422349269064149,1.4921875,-0.26953125,9.65234375
382,611000000,imu1_frame,-0.005561664993109444,-0.0673462147335575,0.009852408950677374,0.9976655177369992,0.05069626687906048,0.13005183102789622,0.023981257763735074,1.41796875,-0.19140625,9.65234375
382,636000000,imu1_frame,-0.004718506994892645,-0.06615166178741645,0.00954851284372981,0.9977527345174132,0.07022751687906048,0.10075495602789622,-0.028753117236264926,1.41796875,-0.19140625,9.65234375
382,661000000,imu1_frame,-0.004270217766514049,-0.06467948144612597,0.00992718589124101,0.9978475739813008,0.04288376687906048,0.12419245602789622,0.027887507763735074,1.41796875,-0.19140625,9.65234375
382,686000000,imu1_frame,-0.0038707557128710582,-0.06321506668645896,0.010304809859763458,0.9979392183333572,0.04245492921026987,0.12295053146761725,0.027608632686097725,1.37890625,-0.26953125,9.69140625
382,711000000,imu1_frame,-0.003663459629338112,-0.06147813256618745,0.01054689577254297,0.9980459815405709,0.026829929210269873,0.14638803146761725,0.017843007686097725,1.37890625,-0.26953125,9.69140625
382,736000000,imu1_frame,-0.0034417056944029225,-0.059736847187326185,0.010785338632721084,0.998149958784054,0.026561629918167174,0.14492415115294108,0.01766457760923675,1.30078125,-0.23046875,9.69140625
382,761000000,imu1_frame,-0.0032257124373993914,-0.05801581040243081,0.011021322067898208,0.9982496135649119,0.026296013618985502,0.14347490964141169,0.01748793183314438,1.265625,-0.23046875,9.6484375
382,786000000,imu1_frame,-0.0030141884521477677,-0.05632672258410726,0.01125474729848133,0.9983444023252475,0.026033053482795648,0.14204016054499755,0.017313052514812938,1.265625,-0.23046875,9.69140625
382,811000000,imu1_frame,-0.0024809426390354256,-0.054940761916403236,0.011385096829767228,0.9984216229498657,0.05142367848279565,0.11860266054499756,0.007547427514812936,1.265625,-0.23046875,9.69140625
382,836000000,imu1_frame,-0.0019399429701354432,-0.05352362250021572,0.01151339795732979,0.9984983225440107,0.05090944169796769,0.11741663393954758,0.007471953239664807,1.1484375,-0.19140625,9.69140625
382,861000000,imu1_frame,-0.001390108641761786,-0.052154725764773244,0.011639436624522567,0.9985702157051498,0.050400347280988016,0.11624246760015211,0.0073972337072681586,1.1875,-0.15234375,9.69140625
382,886000000,imu1_frame,-0.0011980186021796743,-0.05174492034908819,0.011772116193123182,0.9985902288976349,0.021103472280988016,0.040070592600152104,0.009350358707268159,1.1875,-0.15234375,9.69140625
382,911000000,imu1_frame,-0.0010507764428525086,-0.05130496284656076,0.011905708019132906,0.9986115114361257,0.020892437558178135,0.039669886674150584,0.009256855120195476,1.109375,-0.23046875,9.69140625
382,936000000,imu1_frame,-0.0009074037925313099,-0.05087432813209504,0.012038003777983896,0.9986320973313979,0.020683513182596352,0.03927318780740908,0.009164286568993523,1.109375,-0.23046875,9.69140625
382,961000000,imu1_frame,-0.0010142064095209496,-0.051030630633139236,0.01196204589092546,0.9986249323848501,-0.0008008618174036473,-0.007601812192590922,-0.006460713431006478,1.109375,-0.23046875,9.69140625
382,986000000,imu1_frame,-0.0010996726832959043,-0.05120404748707771,0.0118857985547449,0.9986168755001323,-0.0007928531992296109,-0.007525794070665013,-0.006396106296696413,1.1484375,-0.19140625,9.69140625
383,11000000,imu1_frame,-0.0010827083937029979,-0.05146933437315664,0.011718912738895831,0.9986052285292405,0.006949450332762685,-0.015184911129958362,-0.014066520233729448,1.1484375,-0.19140625,9.69140625
383,36000000,imu1_frame,-0.0010669655982639358,-0.05173009385277622,0.01155379841913107,0.9985936955120862,0.006879955829435059,-0.01503306201865878,-0.013925855031392154,1.1484375,-0.19140625,9.69140625
383,61000000,imu1_frame,-0.0010521908321194766,-0.05200646560982011,0.01139039325375987,0.9985812332358105,0.006811156271140708,-0.014882731398472192,-0.013786596481078233,1.1875,-0.19140625,9.6875
383,86000000,imu1_frame,-0.0010388237222716688,-0.052258160489552306,0.011228769370118836,0.9985699375837203,0.006743044708429301,-0.01473390408448747,-0.01364873051626745,1.1484375,-0.19140625,9.69140625
383,111000000,imu1_frame,-0.0009848922617785767,-0.051951652501275425,0.011093520064669106,0.9985874972190439,0.010649294708429301,0.03018797091551253,-0.01169560551626745,1.1484375,-0.19140625,9.69140625
383,136000000,imu1_frame,-0.0009329201952965937,-0.05165194584884412,0.010959648691405501,0.9986045725163181,0.010542801761345007,0.029886091206357403,-0.011578649461104776,1.1484375,-0.19140625,9.69140625
383,161000000,imu1_frame,-0.0008828734234246088,-0.0513589353979796,0.010827141457807884,0.9986211760708648,0.010437373743731557,0.02958723029429383,-0.011462862966493728,1.1484375,-0.19140625,9.69140625
383,186000000,imu1_frame,-0.000863733382820936,-0.051048805376788575,0.010791245510012619,0.9986374830010081,0.008399406256294243,0.03122495174135089,-0.0036138593368287906,1.1484375,-0.19140625,9.69140625
383,211000000,imu1_frame,-0.0008458242659598566,-0.050745640716187305,0.010755707083385439,0.9986533328912247,0.0083154121937313,0.030912702223937383,-0.0035777207434605027,1.1484375,-0.19140625,9.69140625
383,236000000,imu1_frame,-0.0008291232758349506,-0.05044933335341919,0.010720522898763376,0.9986687377241595,0.008232258071793987,0.03060357520169801,-0.003541943536025898,1.1484375,-0.19140625,9.69140625
383,261000000,imu1_frame,-0.0008566776651047429,-0.04998762238997976,0.01056074443725052,0.9986936338978566,0.004326008071793987,0.044275450201698006,-0.013307568536025898,1.1484375,-0.19140625,9.69140625
383,286000000,imu1_frame,-0.0008651442787165555,-0.04951822217555216,0.010401566265732992,0.9987186814199328,0.004282747991076047,0.043832695699681026,-0.013174492850665638,1.109375,-0.15234375,9.65234375
383,311000000,imu1_frame,-0.0009391637718456657,-0.04982668688769443,0.010263773040078404,0.998704698200718,-0.0015766270089239533,-0.01866730430031897,-0.011221367850665638,1.109375,-0.15234375,9.65234375
383,336000000,imu1_frame,-0.0010121488374308842,-0.05012769155987027,0.010127377108470004,0.9986909563656379,-0.0015608607388347137,-0.01848063125731578,-0.011109154172158983,1.109375,-0.15234375,9.6875
383,361000000,imu1_frame,-0.0011043316625028224,-0.050423357495369095,0.00999338030512884,0.9986773241746058,-0.0015452521314463664,-0.018295824944742623,-0.010998062630437393,1.109375,-0.19140625,9.69140625
383,386000000,imu1_frame,-0.0011955596818811964,-0.050713795562604636,0.009860761098768846,0.9986638308095646,-0.0015297996101319028,-0.018112866695295198,-0.010888082004133019,1.109375,-0.19140625,9.69140625
383,411000000,imu1_frame,-0.001247719918924211,-0.050228384249504,0.009778387948055961,0.9986891086518495,0.002376450389868097,0.0443871333047048,-0.006981832004133019,1.109375,-0.19140625,9.69140625
383,436000000,imu1_frame,-0.0012996887789070352,-0.04975330082026285,0.009696759201270727,0.9987136189757096,0.002352685885969416,0.04394326197165775,-0.0069120136840916885,1.109375,-0.19140625,9.69140625
383,461000000,imu1_frame,-0.0013514644908963346,-0.049288387753673134,0.009615868712674806,0.998737384623843,0.002329159027109722,0.04350382935194118,-0.006842893547250772,1.109375,-0.19140625,9.69140625
383,486000000,imu1_frame,-0.001538775427290143,-0.04974680207447072,0.009528908689646202,0.9987152185446722,-0.009389590972890278,-0.03071492064805882,-0.006842893547250772,1.109375,-0.19140625,9.69140625
383,511000000,imu1_frame,-0.0016330699706945011,-0.04988582835588559,0.009495064931413956,0.9987084564344422,-0.001577090972890278,-0.005324295648058823,-0.0029366435472507717,1.109375,-0.19140625,9.69140625
383,536000000,imu1_frame,-0.0017262694594760819,-0.05002280198620132,0.009461561124896649,0.9987017663628528,-0.0015613200631613752,-0.005271052691578235,-0.002907277111778264,1.109375,-0.19140625,9.69140625
383,561000000,imu1_frame,-0.0018891698135448645,-0.049845444376198055,0.009326212812909218,0.99871161226198,-0.007420695063161375,0.020119572308421766,-0.010719777111778264,1.109375,-0.19140625,9.69140625
383,586000000,imu1_frame,-0.001954305885326003,-0.04988611694270725,0.009244856217150505,0.998710212553376,0.00039180493683862484,0.002541447308421765,-0.0068135271117782635,1.109375,-0.19140625,9.69140625
383,611000000,imu1_frame,-0.001874290939008828,-0.04963546400762274,0.009121492691793454,0.9987239889565572,0.012110554936838625,0.025978947308421766,-0.010719777111778264,1.109375,-0.19140625,9.69140625
383,636000000,imu1_frame,-0.0017968641550207456,-0.04937264876358584,0.008999457736965116,0.9987382653096439,0.01198944938747024,0.02571915783533755,-0.010612579340660481,1.07421875,-0.19140625,9.69140625
383,661000000,imu1_frame,-0.0017010063046983255,-0.049074752573995024,0.008876560099697915,0.9987542149689028,0.01198944938747024,0.02571915783533755,-0.010612579340660481,0.99609375,-0.15234375,9.6484375
383,686000000,imu1_frame,-0.0016269538377561544,-0.048820718040386235,0.008755797865627158,0.9987678541658053,0.011869554893595537,0.025461966256984173,-0.010506453547253877,1.07421875,-0.19140625,9.69140625
383,711000000,imu1_frame,-0.0017689677811627575,-0.04919865151422373,0.008698436929697647,0.9987495685291441,-0.005708570106404464,-0.025319283743015827,-0.0046470785472538766,1.07421875,-0.19140625,9.69140625
383,736000000,imu1_frame,-0.0018729047904116702,-0.0491858610532824,0.008813428676463002,0.9987490008881402,-0.0018023201064044638,0.005930716256984173,0.009024796452746123,1.07421875,-0.19140625,9.69140625
383,761000000,imu1_frame,-0.0019556718999778205,-0.04915387206379411,0.008926310942389179,0.9987494146088476,-0.001784296905340419,0.005871409094414331,0.008934548488218662,1.03515625,-0.15234375,9.69140625
383,786000000,imu1_frame,-0.0021032544767029685,-0.04924324154883273,0.008938125673850302,0.9987446066897222,-0.007567235186287015,-0.003855273746529813,0.0011108280033364755,1.03515625,-0.15234375,9.69140625
383,811000000,imu1_frame,-0.0022018453968263504,-0.049114076992533916,0.008927435044241996,0.9987508499228177,-0.0036609851862870147,0.013722851253470187,-0.0008422969966635245,1.03515625,-0.15234375,9.69140625
383,836000000,imu1_frame,-0.002298996650052453,-0.0489878941505246,0.00891680300477284,0.998756923112563,-0.0036243753344241446,0.013585622740935485,-0.0008338740266968891,1.03515625,-0.15234375,9.69140625
383,861000000,imu1_frame,-0.002415444439838676,-0.04929770287182758,0.008905936191641992,0.9987415013006465,-0.005577500334424145,-0.021570627259064515,-0.0008338740266968891,1.03515625,-0.15234375,9.69140625
383,886000000,imu1_frame,-0.002509574051217729,-0.049481921483019074,0.008944352889605517,0.9987318158724173,-0.0035881315810799034,-0.011686952236473869,0.0030416522135700797,1.03515625,-0.15234375,9.69140625
383,911000000,imu1_frame,-0.0025804244956400815,-0.04956698615834909,0.009007472983708421,0.9987268499059432,-0.0016186565152691043,-0.003835707714109131,0.004944829441434379,1.03515625,-0.15234375,9.69140625
383,936000000,imu1_frame,-0.002670355303578738,-0.04965111299633319,0.009070947144429917,0.9987218602287031,-0.0016024699501164133,-0.0037973506369680396,0.004895381147020036,1.03515625,-0.19140625,9.6875
383,961000000,imu1_frame,-0.002739296761406868,-0.04971363607803128,0.00913285712576732,0.9987179990176779,-0.0015864452506152492,-0.003759377130598359,0.004846427335549835,0.99609375,-0.15234375,9.69140625
383,986000000,imu1_frame,-0.002807089532435452,-0.04979497620258264,0.0091940658801168,0.9987131969419115,-0.0015705807981090966,-0.0037217833592923756,0.004797963062194337,1.03515625,-0.15234375,9.69140625
384,11000000,imu1_frame,-0.0028376193221322007,-0.05018961131748524,0.009062339013030092,0.998694560335639,0.0003825442018909033,-0.029112408359292376,-0.010827036937805663,1.03515625,-0.15234375,9.69140625
384,36000000,imu1_frame,-0.0028880977203762635,-0.05057707035074308,0.008932997026953972,0.9986760337619052,0.00037871875987199427,-0.028821284275699452,-0.010718766568427606,1.03515625,-0.19140625,9.6875
384,61000000,imu1_frame,-0.002918236250304953,-0.05095669675002522,0.008803996730727261,0.9986577935384467,0.00037493157227327435,-0.028533071432942456,-0.010611578902743331,1.03515625,-0.15234375,9.69140625
384,86000000,imu1_frame,-0.0029680789307996633,-0.05134903779123268,0.00867728946385539,0.998638659111961,0.0003711822565505416,-0.02824774071861303,-0.010505463113715897,1.07421875,-0.19140625,9.69140625
384,111000000,imu1_frame,-0.0032695951720047405,-0.05135293047718122,0.008683025788196604,0.9986374674234784,-0.019160067743449458,0.0030022592813869677,0.0012132868862841026,1.07421875,-0.19140625,9.69140625
384,136000000,imu1_frame,-0.0035659669021270808,-0.051337456793130426,0.008688648195033063,0.9986371997890973,-0.018968467066014964,0.0029722366885730983,0.0012011540174212618,1.03515625,-0.19140625,9.6875
384,161000000,imu1_frame,-0.003857025285531681,-0.05132248045072822,0.0086940782765896,0.9986368405778209,-0.018778782395354816,0.002942514321687367,0.001189142477247049,1.03515625,-0.19140625,9.6875
384,190000000,imu1_frame,-0.003979035301149588,-0.05166474178443634,0.008626645121524992,0.998619298195447,-0.005106907395354814,-0.022448110678312632,-0.004670232522752951,1.03515625,-0.19140625,9.6875
384,211000000,imu1_frame,-0.003989381596524756,-0.051548262725368416,0.008705267581410103,0.9986245940095857,0.004658717604645186,0.012708139321687368,0.007048517477247049,1.03515625,-0.19140625,9.6875
384,236000000,imu1_frame,-0.003991821732085585,-0.05140926698058765,0.00879741857007962,0.9986309418670547,0.004612130428598734,0.012581057928470495,0.006978032302474579,1.03515625,-0.19140625,9.6875
384,261000000,imu1_frame,-0.004042871800722765,-0.051369135992219164,0.008910670302901305,0.9986317975158657,0.0006988216243127467,0.004720872349185789,0.008841845729449833,1.03515625,-0.19140625,9.6875
384,286000000,imu1_frame,-0.004093380522929533,-0.05132999836225165,0.009022778647717722,0.9986325975900747,0.0006918334080696192,0.004673663625693931,0.008753427272155334,1.03515625,-0.19140625,9.6875
384,311000000,imu1_frame,-0.004070367682501527,-0.05080824413681953,0.009039080911589089,0.9986592258878583,0.006551208408069619,0.04373616362569393,0.0009409272721553345,1.03515625,-0.19140625,9.6875
384,336000000,imu1_frame,-0.004048333901759627,-0.050297106935746794,0.00905517748141321,0.9986850433381359,0.006485696323988923,0.04329880198943699,0.0009315179994337812,1.03515625,-0.19140625,9.6875
384,361000000,imu1_frame,-0.004027261994238228,-0.049796427278857844,0.009071071206118848,0.9987100743750734,0.006420839360749034,0.04286581396954262,0.0009222028194394434,1.03515625,-0.19140625,9.6875
384,386000000,imu1_frame,-0.0040068852525200855,-0.04932572283646763,0.00908666587070266,0.9987333730483764,0.006356630967141543,0.042437155829847195,0.000912980791245049,1.07421875,-0.19140625,9.69140625
384,411000000,imu1_frame,-0.0040671452212171525,-0.04979171069789302,0.011447941909342717,0.9986857305987541,0.008309755967141544,-0.033734719170152805,0.18841298079124505,1.07421875,-0.19140625,9.69140625
384,436000000,imu1_frame,-0.0041264220239335715,-0.05016744380532007,0.01378595630902457,0.9986371451292838,0.008226658407470128,-0.033397371978451273,0.1865288509833326,0.91796875,-0.19140625,9.7265625
384,461000000,imu1_frame,-0.004183496401015024,-0.0505769757476806,0.016100294019142234,0.9985816183039715,0.008144391823395427,-0.03306339825866676,0.18466356247349927,0.99609375,-0.19140625,9.6875
384,486000000,imu1_frame,-0.004264735029363993,-0.0510161594144295,0.01650693289915941,0.9985522944142653,-0.0016212331766045733,-0.03501652325866676,0.03231981247349927,0.99609375,-0.19140625,9.6875
384,511000000,imu1_frame,-0.004159616360347446,-0.051112094511820486,0.01648209788305199,0.9985482421173866,0.012050641823395427,-0.007672773258666763,-0.0028364375265007274,0.99609375,-0.19140625,9.6875
384,536000000,imu1_frame,-0.004056721865679066,-0.051226052464666126,0.016457488503184032,0.9985432317274798,0.011930135405161472,-0.007596045526080095,-0.0028080731512357205,1.03515625,-0.19140625,9.6875
384,561000000,imu1_frame,-0.004167251349544196,-0.051487445505471276,0.01637343648659908,0.9985307143744404,-0.005647989594838527,-0.019314795526080095,-0.0067143231512357205,1.03515625,-0.19140625,9.6875
384,586000000,imu1_frame,-0.004276103097489028,-0.05174381516867643,0.016290227268237485,0.9985183628905573,-0.0055915096988901425,-0.019121647570819293,-0.006647179919723363,1.03515625,-0.19140625,9.6875
384,611000000,imu1_frame,-0.004416711973082182,-0.05146705501089564,0.016203366479554206,0.9985334675505781,-0.0075446346988901425,0.023847102429180707,-0.006647179919723363,1.03515625,-0.19140625,9.6875
384,636000000,imu1_frame,-0.0045569926600906255,-0.051155002570408774,0.01611664516319885,0.9985502757891568,-0.0075446346988901425,0.023847102429180707,-0.006647179919723363,0.95703125,-0.19140625,9.65234375
384,661000000,imu1_frame,-0.004693958117875464,-0.05088703876194189,0.016030443873753783,0.9985647204425153,-0.007469188351901241,0.023608631404888898,-0.006580708120526129,1.03515625,-0.19140625,9.6875
384,686000000,imu1_frame,-0.00482867424785934,-0.05062464386318452,0.01594501302435325,0.9985787830203419,-0.007394496468382228,0.02337254509084001,-0.006514901039320868,1.03515625,-0.19140625,9.6875
384,711000000,imu1_frame,-0.004766351245895783,-0.05060302585430719,0.01589504532855499,0.998580974785817,0.00823050353161777,0.0038412950908400098,-0.004561776039320868,1.03515625,-0.19140625,9.6875
384,736000000,imu1_frame,-0.00470571290620527,-0.05058210968934459,0.015845629931346982,0.9985831074364809,0.008148198496301594,0.0038028821399316093,-0.00451615827892766,1.03515625,-0.19140625,9.6875
384,761000000,imu1_frame,-0.00464673177329655,-0.050561883517516185,0.015796760779386163,0.9985851822292714,0.008066716511338577,0.003764853318532293,-0.004470996696138383,1.03515625,-0.19140625,9.6875
384,786000000,imu1_frame,-0.004861260238152802,-0.051680673346642995,0.015762776734906277,0.9985274212664068,-0.015370783488661423,-0.0880320216814677,-0.0025178716961383827,1.03515625,-0.19140625,9.6875
384,811000000,imu1_frame,-0.005129445573599595,-0.05254729167455065,0.015798183580629094,0.9984802894005119,-0.019277033488661423,-0.0685007716814677,0.0033415033038616173,1.03515625,-0.19140625,9.6875
384,836000000,imu1_frame,-0.005392278230538308,-0.05341637240476763,0.015833074170980444,0.9984322351851906,-0.01908426315377481,-0.06781576396465303,0.003308088270823001,1.07421875,-0.19140625,9.69140625
384,861000000,imu1_frame,-0.005519532504060991,-0.05352635309610185,0.01587166653527557,0.9984250369890376,-0.007365513153774808,-0.0072688889646530305,0.003308088270823001,1.07421875,-0.19140625,9.69140625
384,886000000,imu1_frame,-0.0056445790568975555,-0.05363432389422323,0.01590983118261455,0.9984179361867557,-0.0072918580222370594,-0.0071962000750065,0.003275007388114771,1.07421875,-0.19140625,9.69140625
384,911000000,imu1_frame,-0.005777465448100887,-0.05357162146244029,0.01606882402382802,0.9984179962126947,-0.0072918580222370594,0.0064756749249935,0.013040632388114771,1.07421875,-0.19140625,9.69140625
384,936000000,imu1_frame,-0.005928413419613422,-0.0535130976411762,0.016227230021606916,0.9984176877945412,-0.007218939442014689,0.006410918175743565,0.012910226064233624,1.07421875,-0.23046875,9.6484375
384,961000000,imu1_frame,-0.006056701646966583,-0.053433530184169846,0.01638305855529606,0.9984186344462882,-0.007146750047594542,0.006346808993986129,0.012781123803591287,1.03515625,-0.19140625,9.6875
384,986000000,imu1_frame,-0.006006628859384814,-0.053376992759919084,0.016401932008358502,0.998421651247631,0.006525124952405458,0.004393683993986129,0.001062373803591287,1.03515625,-0.19140625,9.6875
385,11000000,imu1_frame,-0.005936966078699393,-0.05315155837311388,0.016445469153682883,0.998433378258462,0.008478249952405457,0.01806555899398613,0.003015498803591287,1.03515625,-0.19140625,9.6875
385,36000000,imu1_frame,-0.005867977074374476,-0.05295048743642074,0.016488863747701896,0.9984437540981514,0.008478249952405457,0.01806555899398613,0.003015498803591287,1.07421875,-0.19140625,9.6484375
385,61000000,imu1_frame,-0.005800252658525781,-0.052751238302955,0.01653184625149724,0.9984539859132814,0.008393467452881402,0.01788490340404627,0.002985343815555374,1.07421875,-0.19140625,9.69140625
385,86000000,imu1_frame,-0.005812890866623318,-0.05303919575131649,0.01640189497845087,0.9984408003757369,0.0005809674528814031,-0.02117759659595373,-0.010686531184444625,1.07421875,-0.19140625,9.69140625
385,111000000,imu1_frame,-0.0059026690408800694,-0.053226841452391885,0.01634122503730807,0.9984312826687053,-0.005225623471647411,-0.013231445629994194,-0.0047788846226001795,1.07421875,-0.19140625,9.69140625
385,136000000,imu1_frame,-0.006010984737241064,-0.05341126557626275,0.01628221510128897,0.9984217516878455,-0.005173367236930937,-0.013099131173694253,-0.004731095776374178,1.07421875,-0.23046875,9.69140625
385,161000000,imu1_frame,-0.006044337908976662,-0.05361507060937954,0.016203721079076513,0.9984119037781876,0.0006791476854383726,-0.01490173361195731,-0.006617378568610436,1.07421875,-0.23046875,9.69140625
385,186000000,imu1_frame,-0.006077234056027032,-0.05383286237195803,0.0161259128013008,0.998401244536181,0.0006723562085839889,-0.014752716275837737,-0.006551204782924332,1.109375,-0.23046875,9.69140625
385,211000000,imu1_frame,-0.0061692242470146996,-0.05375895152284375,0.016165516608460547,0.9984040223657635,-0.003233893791416011,0.008684783724162263,0.003214420217075668,1.109375,-0.23046875,9.69140625
385,236000000,imu1_frame,-0.0062401720160140525,-0.05366866535518332,0.01620375320377936,0.9984078189769524,-0.003201554853501851,0.00859793588692064,0.003182276014904912,1.07421875,-0.19140625,9.69140625
385,261000000,imu1_frame,-0.0063099587578454895,-0.05358034163513324,0.0162415681880408,0.9984115097861853,-0.0031695393049668325,0.008511956528051434,0.0031504532547558623,1.07421875,-0.19140625,9.69140625
385,286000000,imu1_frame,-0.006327994197465753,-0.053347928625626734,0.016183538649724057,0.9984247833850904,0.0007367106950331675,0.020230706528051434,-0.004662046745244138,1.07421875,-0.19140625,9.69140625
385,311000000,imu1_frame,-0.006317052170703328,-0.05340702581860307,0.016128672129761684,0.998422581064959,0.0026898356950331675,-0.0032067934719485665,-0.004662046745244138,1.07421875,-0.19140625,9.69140625
385,336000000,imu1_frame,-0.006326172774594823,-0.053463237905520995,0.0160754400082859,0.998420373369466,0.002662937338082836,-0.0031747255372290804,-0.0046154262777916965,1.07421875,-0.23046875,9.73046875
385,361000000,imu1_frame,-0.00633603020536216,-0.053520694761522686,0.016022776401112836,0.998418079058007,0.0026363079647020076,-0.00314297828185679,-0.004569272015013779,1.07421875,-0.23046875,9.69140625
385,386000000,imu1_frame,-0.006461209487351522,-0.053748729528625944,0.015915874084071146,0.9984067366550364,-0.007129317035297992,-0.01681485328185679,-0.00847552201501378,1.07421875,-0.23046875,9.69140625
385,411000000,imu1_frame,-0.00656330947964721,-0.05387628254186611,0.015834838009329177,0.9984004843014459,-0.005124430114945013,-0.008912329749038222,-0.0064571730448636415,1.07421875,-0.23046875,9.69140625
385,436000000,imu1_frame,-0.006663546860103516,-0.054019312843942915,0.01575444937241672,0.998393363513642,-0.005073185813795562,-0.008823206451547841,-0.006392601314415005,1.109375,-0.23046875,9.69140625
385,461000000,imu1_frame,-0.006715378664027384,-0.054182779871353164,0.01570178272866798,0.9983849879049429,-0.001155266455657607,-0.010668568137032361,-0.004395081551270855,1.109375,-0.23046875,9.69140625
385,486000000,imu1_frame,-0.006746950976289975,-0.054325110857964466,0.015648729467802627,0.9983778734771904,-0.0011437137911010308,-0.010561882455662037,-0.004351130735758146,1.07421875,-0.19140625,9.69140625
385,511000000,imu1_frame,-0.00687756759706145,-0.05446572156288406,0.01566330121845667,0.99836909268743,-0.008866651653190021,-0.010456263631105418,0.0014931618215994352,1.07421875,-0.19140625,9.69140625
385,536000000,imu1_frame,-0.00702577620813431,-0.05460391322795383,0.015678769391481783,0.9983602693012358,-0.008777985136658121,-0.010351700994794363,0.0014782302033834408,1.07421875,-0.23046875,9.69140625
385,561000000,imu1_frame,-0.0071714230119687,-0.054739426773667825,0.01569404222493397,0.9983515727874203,-0.00869020528529154,-0.01024818398484642,0.0014634479013496066,1.07421875,-0.23046875,9.69140625
385,586000000,imu1_frame,-0.007211373365797775,-0.05494331200070955,0.015594353329736592,0.9983416472855368,-0.0008689282324386236,-0.015946483394997955,-0.00821915532766389,1.07421875,-0.23046875,9.69140625
385,611000000,imu1_frame,-0.007207646752550805,-0.055022642088897254,0.015545746034342226,0.9983380632161049,0.0030069485498857625,-0.006119049811047977,-0.004269776274387251,1.07421875,-0.23046875,9.69140625
385,636000000,imu1_frame,-0.007204395325490562,-0.05510042108655225,0.015497660899231842,0.9983345445243951,0.0029768790643869046,-0.006057859312937497,-0.004227078511643378,1.07421875,-0.23046875,9.69140625
385,661000000,imu1_frame,-0.007181322361073857,-0.05519425743045456,0.015448832413264509,0.9983302840908483,0.002947110273743036,-0.005997280719808122,-0.004184807726526944,1.109375,-0.19140625,9.69140625
385,686000000,imu1_frame,-0.0071760603646923195,-0.05545694403875694,0.01532679825236247,0.9983176452266362,0.0009939852737430358,-0.019669155719808123,-0.010044182726526945,1.109375,-0.19140625,9.69140625
385,711000000,imu1_frame,-0.0071502485546026855,-0.055689960798843766,0.015255462372664121,0.9983059516398902,0.0029176391710056056,-0.01753887041261004,-0.006076553399261675,1.109375,-0.19140625,9.69140625
385,736000000,imu1_frame,-0.007145145908665797,-0.05591875794426093,0.015186006042887086,0.9982942575315058,0.0028884627792955496,-0.017363481708483938,-0.0060157878652690585,1.109375,-0.23046875,9.69140625
385,761000000,imu1_frame,-0.007165774492013968,-0.0561433092724999,0.015140066328617781,0.9982822040342236,0.0009259844015025939,-0.017189846891399102,-0.004022036236616368,1.109375,-0.23046875,9.69140625
385,786000000,imu1_frame,-0.007186059624540071,-0.056383326769234195,0.015094452249210365,0.9982692214632297,0.000916724557487568,-0.01701794842248511,-0.003981815874250204,1.1484375,-0.23046875,9.69140625
385,811000000,imu1_frame,-0.007225407517421308,-0.056766410373678786,0.014999803080710349,0.9982486534160886,-0.001036400442512432,-0.02873669842248511,-0.007888065874250203,1.1484375,-0.23046875,9.69140625
385,836000000,imu1_frame,-0.007264392592461382,-0.05714208910227515,0.014906155565170305,0.9982283389984263,-0.0010260364380873077,-0.02844933143826026,-0.007809185215507702,1.1484375,-0.23046875,9.69140625
385,861000000,imu1_frame,-0.007303018574664942,-0.05751047293197883,0.014813499122284622,0.9982082807042788,-0.0010157760737064345,-0.028164838123877656,-0.0077310933633526245,1.1484375,-0.23046875,9.69140625
385,886000000,imu1_frame,-0.0073412891363097785,-0.05787167037792725,0.014721823280825825,0.9981884807794437,-0.0010056183129693703,-0.02788318974263888,-0.0076537824297190984,1.1484375,-0.23046875,9.69140625
385,911000000,imu1_frame,-0.007297472763208412,-0.057696172236739666,0.014753720473808204,0.9981984904480068,0.00680688168703063,0.01508556025736112,0.0021118425702809016,1.1484375,-0.23046875,9.69140625
385,936000000,imu1_frame,-0.0072545880245173415,-0.057544373846408474,0.014785137573394131,0.9982071006049572,0.006738812870160323,0.014934704654787509,0.0020907241445780925,1.1875,-0.23046875,9.6875
385,961000000,imu1_frame,-0.007213191132616543,-0.05737588650640937,0.01481643903043053,0.9982166351327479,0.00667142474145872,0.014785357608239635,0.0020698169031323115,1.1484375,-0.23046875,9.69140625
385,986000000,imu1_frame,-0.007125907486547872,-0.05679871822833505,0.014774413092698509,0.998250892194882,0.01057767474145872,0.04798848260823963,-0.0037895580968676885,1.1484375,-0.23046875,9.69140625
386,11000000,imu1_frame,-0.007038359516786794,-0.056305072650111886,0.01470918779015847,0.9982804416013227,0.010471897994044133,0.04170781653215724,-0.005685256265899012,1.1484375,-0.23046875,9.69140625
386,36000000,imu1_frame,-0.006952980267261582,-0.05582151122132054,0.014644609850077844,0.998309145682193,0.010367179014103691,0.041290738366835666,-0.0056284037032400215,1.1484375,-0.23046875,9.69140625
386,61000000,imu1_frame,-0.0070085882615110945,-0.05575492487899467,0.01459905554399098,0.9983131450699935,-0.0013515709858963082,0.008087613366835666,-0.0036752787032400215,1.1484375,-0.23046875,9.69140625
386,86000000,imu1_frame,-0.007297718144052612,-0.056006534861676414,0.014493223837553212,0.9982985314150635,-0.02088282098589631,-0.017303011633164334,-0.0075815287032400215,1.1484375,-0.23046875,9.69140625
386,111000000,imu1_frame,-0.007606456131751731,-0.05618211382529229,0.014386425046343482,0.9982879057093819,-0.022607586526037345,-0.01132920026683269,-0.007505713416207621,1.1484375,-0.23046875,9.69140625
386,136000000,imu1_frame,-0.00790977136015263,-0.05633463011579015,0.01428074039957816,0.9982784708789363,-0.02238151066077697,-0.011215908264164364,-0.007430656282045545,1.109375,-0.23046875,9.69140625
386,161000000,imu1_frame,-0.008207426485472031,-0.0564841724684358,0.0141759804630925,0.9982691110061213,-0.0221576955541692,-0.01110374918152272,-0.00735634971922509,1.109375,-0.23046875,9.69140625
386,186000000,imu1_frame,-0.008499192206310006,-0.056650627775876546,0.01407193542397103,0.9982587093223194,-0.02193611859862751,-0.010992711689707493,-0.007282786222032839,1.1484375,-0.23046875,9.69140625
386,211000000,imu1_frame,-0.008735059223953233,-0.05744142261185419,0.01404911209787404,0.9982118032551718,-0.01802986859862751,-0.061773961689707495,-0.0014234112220328388,1.1484375,-0.23046875,9.69140625
386,236000000,imu1_frame,-0.008965764427233243,-0.05823424494977324,0.014026275184228805,0.9981641405038659,-0.017849569912641236,-0.06115622207281042,-0.0014091771098125104,1.1875,-0.23046875,9.7265625
386,261000000,imu1_frame,-0.00921228378803754,-0.05899201510917659,0.014005016387882,0.998117696214601,-0.017671074213514822,-0.060544659852082315,-0.0013950853387143854,1.1484375,-0.26953125,9.7265625
386,286000000,imu1_frame,-0.009220396139050608,-0.05916025599547225,0.01394407081815836,0.9981085167929424,0.0018601757864851777,-0.013669659852082315,-0.0053013353387143854,1.1484375,-0.26953125,9.7265625
386,311000000,imu1_frame,-0.009001364871052915,-0.05881572805982101,0.014014765075787593,0.9981298873008071,0.021391425786485178,0.027345965147917685,0.0044642896612856146,1.1484375,-0.26953125,9.7265625
386,336000000,imu1_frame,-0.008787181216968972,-0.05849999579788778,0.014084635483703098,0.9981493670694774,0.021177511528620324,0.02707250549643851,0.0044196467646727584,1.1875,-0.26953125,9.69140625
386,361000000,imu1_frame,-0.00855799009202765,-0.058170723879655994,0.014152949179990326,0.9981696357425477,0.020965736413334123,0.026801780441474125,0.004375450297026031,1.1484375,-0.23046875,9.69140625
386,386000000,imu1_frame,-0.008441322043204243,-0.05818503192335291,0.014119674617171061,0.9981702665031386,0.011200111413334123,-0.0005419695585258759,-0.003437049702973969,1.1484375,-0.23046875,9.69140625
386,411000000,imu1_frame,-0.008300965970693804,-0.05827065774397473,0.014064736343475225,0.9981672242673703,0.01302170404920078,-0.006337331112940617,-0.00533627295594423,1.1484375,-0.23046875,9.69140625
386,436000000,imu1_frame,-0.008163428294151528,-0.05837472200450125,0.014010263471790043,0.9981630441900935,0.012891487008708773,-0.006273957801811211,-0.005282910226384787,1.1875,-0.23046875,9.6875
386,461000000,imu1_frame,-0.008078382464698395,-0.058358231107120656,0.01395259989419852,0.9981655080972266,0.008895384638621686,0.003456750526206901,-0.005230081124120939,1.1875,-0.23046875,9.6875
386,486000000,imu1_frame,-0.00799561491124283,-0.058322271632572746,0.013895772553746435,0.9981690689852807,0.008806430792235469,0.0034221830209448323,-0.00517778031287973,1.1484375,-0.23046875,9.69140625
386,511000000,imu1_frame,-0.008002768107869368,-0.058722458135158175,0.013812438783335015,0.9981467052232517,0.0009939307922354687,-0.03173406697905517,-0.00713090531287973,1.1484375,-0.23046875,9.69140625
386,536000000,imu1_frame,-0.008009858389643956,-0.059134766858096,0.013729818558016738,0.9981234460724688,0.000983991484313114,-0.03141672630926461,-0.007059596259750932,1.1875,-0.23046875,9.6875
386,561000000,imu1_frame,-0.008017147879844802,-0.059539050399482096,0.013648097026807582,0.9981004740330242,0.0009741515694699828,-0.03110255904617197,-0.006989000297153423,1.1875,-0.23046875,9.6875
386,586000000,imu1_frame,-0.007912345061438645,-0.05962344556116311,0.013644287338290362,0.998096324488811,0.010739776569469983,-0.00571193404617197,-0.001129625297153423,1.1875,-0.23046875,9.6875
386,611000000,imu1_frame,-0.007999506863884514,-0.05975806793961033,0.013604819047463473,0.9980881174048438,-0.004885223430530017,-0.00961818404617197,-0.003082750297153423,1.1875,-0.23046875,9.6875
386,636000000,imu1_frame,-0.008085257764428092,-0.05989013988263615,0.01356572928517285,0.9980800422514633,-0.004836371196224717,-0.00952200220571025,-0.003051922794181889,1.1875,-0.23046875,9.6875
386,661000000,imu1_frame,-0.008169877283638619,-0.059999635031583794,0.013527209987479083,0.9980732996584979,-0.00478800748426247,-0.009426782183653148,-0.0030214035662400702,1.1484375,-0.23046875,9.69140625
386,686000000,imu1_frame,-0.008249219688362243,-0.06054204868041335,0.013516667702176447,0.9980400344727361,-0.00478800748426247,-0.04458303218365315,-0.00106827856624007,1.1484375,-0.23046875,9.69140625
386,711000000,imu1_frame,-0.008252928341615968,-0.06095371591018066,0.013437337261142187,0.998016017736118,0.001060653840580155,-0.03446923311181661,-0.0068583770305776694,1.1484375,-0.23046875,9.69140625
386,736000000,imu1_frame,-0.008256625939787042,-0.06137704997107957,0.01335867907290415,0.9979910979354301,0.0010500473021743534,-0.03412454078069845,-0.006789793260271893,1.1875,-0.23046875,9.6875
386,761000000,imu1_frame,-0.008207290510787642,-0.061118390959168135,0.013449433150263158,0.9980061600095314,0.006909422302174353,0.02056295921930155,0.006882081739728107,1.1875,-0.23046875,9.6875
386,786000000,imu1_frame,-0.00815955575119896,-0.06086707873887967,0.013539288846644371,0.998020695192873,0.0068403280791526095,0.020357329627108536,0.006813260922330826,1.1875,-0.23046875,9.65234375
386,811000000,imu1_frame,-0.008099902997730331,-0.060884795223679324,0.013485174811946412,0.998020833120376,0.0068403280791526095,-0.0011270453728914657,-0.004905489077669174,1.1875,-0.23046875,9.65234375
386,836000000,imu1_frame,-0.008022929009102482,-0.06066039533590352,0.01347932242767452,0.9980351982343597,0.00879345307915261,0.018404204627108536,-0.000999239077669174,1.1875,-0.23046875,9.65234375
386,861000000,imu1_frame,-0.00794709095582035,-0.060458131321833974,0.013473363428869201,0.9980481584474395,0.008705518548361085,0.01822016258083745,-0.0009892466868924822,1.2265625,-0.23046875,9.6875
386,886000000,imu1_frame,-0.007849827451627182,-0.06021206475297384,0.013468584999025921,0.9980638680391588,0.010552057112877473,0.021905148455029076,-0.000979354220023557,1.2265625,-0.23046875,9.6875
386,911000000,imu1_frame,-0.007876527604416983,-0.06011426002413878,0.013530670097906523,0.9980687135770507,0.000786432112877473,0.010186398455029074,0.0048800207799764425,1.2265625,-0.23046875,9.6875
386,936000000,imu1_frame,-0.007903275337897133,-0.05999889233272291,0.013592306563902964,0.9980746066101736,0.0007785677917486983,0.010084534470478784,0.004831220572176678,1.1875,-0.23046875,9.6875
386,961000000,imu1_frame,-0.0079297642684756,-0.05988593337629656,0.013653308179578307,0.998080347967061,0.0007707821138312113,0.009983689125773996,0.004782908366454911,1.1875,-0.23046875,9.6875
386,986000000,imu1_frame,-0.00790142339176814,-0.05991875711806798,0.013645311612523484,0.9980787120887848,0.004677032113831211,-0.0017350608742260042,-0.0010764666335450882,1.1875,-0.23046875,9.6875
387,11000000,imu1_frame,-0.007874352867941078,-0.059953244304096424,0.013637439557511141,0.9980769626169316,0.004630261792692899,-0.001717710265483744,-0.0010657019672096375,1.1875,-0.23046875,9.65234375
387,36000000,imu1_frame,-0.007847744087072003,-0.059984981002366274,0.013629681382872337,0.9980753712782873,0.00458395917476597,-0.0017005331628289066,-0.001055044947537541,1.1875,-0.23046875,9.6875
387,61000000,imu1_frame,-0.007824707994172687,-0.05992048232571283,0.013645390612834258,0.9980792118152162,0.004538119583018311,0.006050847168799382,0.0008890992519378344,1.1875,-0.23046875,9.6875
387,86000000,imu1_frame,-0.007802436355455291,-0.05985738546108764,0.013660964568818405,0.9980829591971457,0.0044927383871881275,0.005990338697111389,0.0008802082594184561,1.1875,-0.23046875,9.6875
387,111000000,imu1_frame,-0.007757140950791732,-0.05989068782584289,0.013702753982162733,0.998080741628312,0.006381404753316246,-0.0018039396898597254,0.0028049999268242717,1.1875,-0.23046875,9.6875
387,136000000,imu1_frame,-0.007784694459801652,-0.05992443376721276,0.013739788483701616,0.9980779924345942,0.0005168094557830837,-0.0017859002929611282,0.002776949927556029,1.1875,-0.23046875,9.6875
387,161000000,imu1_frame,-0.007811997475659392,-0.059957627778329255,0.013776457387241484,0.9980752801209402,0.0005116413612252529,-0.001768041290031517,0.0027491804282804683,1.1875,-0.23046875,9.6875
387,186000000,imu1_frame,-0.007816818005136785,-0.05987053693058697,0.013813268739643331,0.9980799616116158,0.002440118697613,0.007917607872868798,0.0027216886239976638,1.1875,-0.23046875,9.6875
387,211000000,imu1_frame,-0.007822167942946323,-0.059761421412672044,0.013849520397794727,0.9980859567112246,0.0024157175106368704,0.00977202554414011,0.002694471737757687,1.1875,-0.23046875,9.6875
387,236000000,imu1_frame,-0.007827705749223769,-0.05965461261815975,0.013885406162693554,0.9980918042503796,0.002391560335530502,0.009674305288698708,0.00266752702038011,1.1875,-0.23046875,9.6875
387,261000000,imu1_frame,-0.007833695613502783,-0.05953001093958684,0.0139211192454896,0.9980986992524941,0.0023676447321751967,0.009577562235811722,0.002640851750176309,1.1484375,-0.23046875,9.69140625
387,286000000,imu1_frame,-0.007815644436458576,-0.05943139660021608,0.013958116255966373,0.9981042008682138,0.004277562034853444,0.007548192863453605,0.002614443232674546,1.1484375,-0.23046875,9.69140625
387,311000000,imu1_frame,-0.007841793647221953,-0.059335933255154134,0.013919488554911041,0.9981102149239353,0.00036759891450491023,0.007472710934819069,-0.0032124824496521996,1.1484375,-0.23046875,9.69140625
387,336000000,imu1_frame,-0.007867761800097512,-0.05924234117725059,0.013881237909066878,0.9981161027506805,0.00036392292535986114,0.007397983825470878,-0.0031803576251556776,1.1484375,-0.23046875,9.69140625
387,361000000,imu1_frame,-0.007913926701984608,-0.059415384532933525,0.0138436451670129,0.9981059739994792,-0.0015892020746401388,-0.014086391174529122,-0.0031803576251556776,1.1484375,-0.23046875,9.69140625
387,386000000,imu1_frame,-0.007959503067657556,-0.0595849468685816,0.01380644665794624,0.9980960186516453,-0.0015733100538937374,-0.01394552726278383,-0.003148554048904121,1.1484375,-0.23046875,9.69140625
387,411000000,imu1_frame,-0.008029794053539067,-0.05975122271652097,0.013792306101154016,0.9980857107902861,-0.0034911707033548002,-0.013806071990155992,-0.0011834747584150796,1.1484375,-0.23046875,9.69140625
387,436000000,imu1_frame,-0.008098727200951688,-0.05993418425569884,0.013778114541052497,0.9980743798610514,-0.0034562589963212523,-0.013668011270254432,-0.0011716400108309289,1.1875,-0.23046875,9.6875
387,461000000,imu1_frame,-0.008167334017909362,-0.06009615658625292,0.013764267247072274,0.998064272261938,-0.0034216964063580393,-0.013531331157551887,-0.0011599236107226194,1.1484375,-0.23046875,9.6484375
387,486000000,imu1_frame,-0.008191888367430313,-0.06011071363430132,0.013800882304795405,0.9980626887720829,0.00048455359364196044,-0.0018125811575518877,0.0027463263892773806,1.1484375,-0.23046875,9.6484375
387,511000000,imu1_frame,-0.008139303986493806,-0.06019614344212324,0.013769775859338302,0.9980583997532883,0.006280489307705541,-0.007595236595976369,-0.0030819181246153934,1.1484375,-0.23046875,9.6484375
387,536000000,imu1_frame,-0.00808732424175126,-0.0602972463849589,0.013738841992261972,0.9980531456218713,0.006217684414628485,-0.007519284230016606,-0.0030510989433692394,1.1875,-0.23046875,9.6875
387,561000000,imu1_frame,-0.00803668329059489,-0.060396414225134164,0.013708281622230256,0.9980479787492174,0.006155507570482201,-0.00744409138771644,-0.003020587953935547,1.1875,-0.23046875,9.6875
387,586000000,imu1_frame,-0.007992889055187337,-0.06034927619614952,0.01374966609583604,0.9980506125790444,0.006155507570482201,0.00427465861228356,0.002838787046064453,1.1875,-0.23046875,9.6875
387,611000000,imu1_frame,-0.007951338711434913,-0.060326846834257784,0.013814989398909261,0.9980513983917062,0.0060939524947773785,0.002298318276160725,0.004743992925603809,1.1875,-0.23046875,9.6875
387,636000000,imu1_frame,-0.007910876863724214,-0.06030494561604595,0.013879696492008048,0.9980521457252535,0.006033012969829605,0.0022753350933991177,0.0046965529963477705,1.1875,-0.23046875,9.6875
387,661000000,imu1_frame,-0.007960641336528544,-0.060333401442548326,0.013841809049925042,0.9980505564259303,-0.0017616921598686912,-0.0016146057575348734,-0.0030847875336157075,1.1875,-0.23046875,9.6875
387,686000000,imu1_frame,-0.008009740509349848,-0.06036136378234345,0.013804293155375416,0.9980489924396443,-0.0017440752382700043,-0.0015984596999595248,-0.00305393965827955,1.1875,-0.23046875,9.6875
387,711000000,imu1_frame,-0.007986202134325692,-0.060411731263814404,0.013771762346459103,0.9980465830125621,0.004074146764112696,-0.0035160688529599295,-0.003023400261696755,1.1875,-0.23046875,9.6875
387,736000000,imu1_frame,-0.00796344899475337,-0.06046116214065784,0.01373959720275704,0.9980442148629565,0.004033405296471569,-0.00348090816443033,-0.0029931662590797874,1.1875,-0.23046875,9.6875
387,761000000,imu1_frame,-0.007941467758934347,-0.06050967011485175,0.013707793650433018,0.9980418875506493,0.003993071243506853,-0.003446099082786027,-0.002963234596488989,1.1875,-0.23046875,9.6875
387,786000000,imu1_frame,-0.007898003641335038,-0.06043753377288018,0.013676849809355006,0.998047027864532,0.005886734281071784,0.006256330658041834,-0.0029336022505240993,1.1875,-0.23046875,9.6875
387,811000000,imu1_frame,-0.007924965683458376,-0.06043970775875586,0.01361828522284119,0.9980474833155693,2.7085688261066682e-05,0.0003929861014614149,-0.0048378599780188585,1.1875,-0.23046875,9.6875
387,836000000,imu1_frame,-0.007951994192533406,-0.060421835477135956,0.013560501759569531,0.9980491372562599,2.6814831378456016e-05,0.00038905624044680075,-0.0047894813782386695,1.1484375,-0.23046875,9.69140625
387,861000000,imu1_frame,-0.007978826461157806,-0.060404180371968756,0.01350329976862763,0.9980507673546731,2.6546683064671455e-05,0.0003851656780423328,-0.004741586564456283,1.1484375,-0.23046875,9.69140625
387,886000000,imu1_frame,-0.00793790359905479,-0.06024060041473781,0.013498090665164211,0.9980610508864269,0.005885921683064671,0.012103915678042332,-0.0008353365644562833,1.1484375,-0.23046875,9.69140625
387,911000000,imu1_frame,-0.007943475884395972,-0.06015263694845287,0.013466475470705761,0.9980667389996616,0.0019598749662340246,0.006182095271261909,-0.0027605769488117204,1.1484375,-0.23046875,9.69140625
387,936000000,imu1_frame,-0.00794926446536,-0.060066314093136015,0.013435180681191653,0.9980723135253219,0.0019402762165716845,0.0061202743185492904,-0.002732971179323603,1.1484375,-0.23046875,9.69140625
387,961000000,imu1_frame,-0.007955006418306761,-0.06000167183990245,0.01340401213950601,0.9980765750722063,0.0019208734544059677,0.0060590715753637975,-0.002705641467530367,1.1875,-0.23046875,9.6875
387,986000000,imu1_frame,-0.007963799624204352,-0.05993804663576481,0.013421403860748988,0.9980800941705236,0.0019016647198619079,0.00599848085961016,0.0011886024471449367,1.1875,-0.23046875,9.6875
388,11000000,imu1_frame,-0.007954619742055923,-0.05972942227634826,0.013512168753504007,0.998091449434805,0.003854789719861908,0.01771723085961016,0.007047977447144937,1.1875,-0.23046875,9.6875
388,36000000,imu1_frame,-0.007945873609902692,-0.059525089712054224,0.01360201376391467,0.9981025057622658,0.003816241822663289,0.017540058551014058,0.006977497672673487,1.1875,-0.23046875,9.6875
388,61000000,imu1_frame,-0.007937817168469098,-0.05930491937425077,0.013691139202586768,0.9981144575167464,0.003778079404436656,0.01736465796550392,0.006907722695946752,1.1484375,-0.23046875,9.69140625
388,86000000,imu1_frame,-0.00797288543627848,-0.059256866134364344,0.013729954130385823,0.9981164988483718,-0.000128170595563344,0.0036927829655039176,0.0030014726959467523,1.1484375,-0.23046875,9.69140625
388,111000000,imu1_frame,-0.008031751412392445,-0.05918619968473252,0.013766727989169182,0.9981197132291301,-0.0020604826396077107,0.005589448885848879,0.0029714579689872848,1.1484375,-0.23046875,9.69140625
388,136000000,imu1_frame,-0.008089723998516873,-0.05911693170890179,0.013803105717300769,0.9981228476613037,-0.0020398778132116333,0.00553355439699039,0.002941743389297412,1.1484375,-0.23046875,9.69140625
388,161000000,imu1_frame,-0.008126848676424601,-0.059048785608257305,0.013837915147978486,0.9981260979220702,-0.0020194790350795172,0.005478218853020486,0.0029123259554044378,1.1484375,-0.19140625,9.69140625
388,186000000,imu1_frame,-0.008067100322746094,-0.05902844268337068,0.013878514694908367,0.9981272221899481,0.005735090755271278,0.0015562491644902808,0.0028832026958503934,1.1484375,-0.19140625,9.69140625
388,211000000,imu1_frame,-0.007906145468200985,-0.059103480430555085,0.013828806359431494,0.9981247595263351,0.013412114847718565,-0.006193688327154622,-0.00488000433110811,1.1484375,-0.19140625,9.69140625
388,236000000,imu1_frame,-0.0077482617309428525,-0.05919708247690229,0.013779517168780335,0.9981211323145938,0.01327799369924138,-0.006131751443883076,-0.00483120428779703,1.1875,-0.19140625,9.6875
388,261000000,imu1_frame,-0.007790904260711489,-0.05917122866018003,0.013790799484355127,0.9981221775710765,-0.0023470063007586203,0.003633873556116924,0.0010281707122029708,1.1875,-0.19140625,9.6875
388,286000000,imu1_frame,-0.007742857683367626,-0.05899899468325658,0.013879831315747394,0.9981315129099505,0.005465493699241379,0.015352623556116924,0.00688754571220297,1.1875,-0.19140625,9.6875
388,311000000,imu1_frame,-0.007716928296045478,-0.05883109828547277,0.01391829910214622,0.9981410881445079,0.003477245012248966,0.015199097320555754,0.002951482755080941,1.1875,-0.19140625,9.6875
388,336000000,imu1_frame,-0.0077118522019983165,-0.05864696001099873,0.013957738662242498,0.9981514128370103,0.0034424725621264762,0.015047106347350197,0.002921967927530132,1.1484375,-0.23046875,9.69140625
388,361000000,imu1_frame,-0.007774068539349929,-0.05873123770107711,0.013970551086444028,0.9981457956024191,-0.0024169024378735238,-0.0064372686526498035,0.0009688429275301316,1.1484375,-0.23046875,9.69140625
388,386000000,imu1_frame,-0.007857134543839298,-0.058766807358145934,0.013933167157354119,0.9981435741628835,-0.0043263271634947885,-0.002505708466123305,-0.00290803300174517,1.1484375,-0.23046875,9.69140625
388,411000000,imu1_frame,-0.00794166917638072,-0.05880132703243475,0.013944379651427327,0.9981407155837569,-0.0042830638918598405,-0.002480651381462072,0.0009882348282722819,1.1484375,-0.23046875,9.69140625
388,436000000,imu1_frame,-0.008004855786237998,-0.058834930474599735,0.013954280620063219,0.9981380922959845,-0.004240233252941242,-0.0024558448676474513,0.000978352479989559,1.1484375,-0.19140625,9.69140625
388,461000000,imu1_frame,-0.008067276151771911,-0.058870490618061704,0.01396405457428701,0.9981353563368678,-0.00419783092041183,-0.002431286418970977,0.0009685689551896634,1.1484375,-0.19140625,9.6484375
388,486000000,imu1_frame,-0.008125089471344082,-0.05895353760343211,0.013925851460958859,0.9981305195144625,-0.004155852611207712,-0.006274161054781267,-0.002908304234362233,1.1484375,-0.19140625,9.6484375
388,511000000,imu1_frame,-0.008186723266528577,-0.05898662145545773,0.013959982582387741,0.9981275844989594,-0.004114294085095635,-0.0023442319442334545,0.002921560057981389,1.1484375,-0.19140625,9.6484375
388,536000000,imu1_frame,-0.008246801193578651,-0.059016480710051514,0.01399374328505541,0.9981248521219908,-0.004073151144244678,-0.00232078962479112,0.002892344457401575,1.1484375,-0.19140625,9.69140625
388,561000000,imu1_frame,-0.008325706738937212,-0.05904601184875487,0.014028313771572582,0.99812196524512,-0.004032419632802231,-0.0022975817285432088,0.0028634210128275594,1.1484375,-0.23046875,9.69140625
388,586000000,imu1_frame,-0.008401946504667876,-0.059170494778233176,0.014063328081453146,0.9981134618097811,-0.003992095436474209,-0.010008980911257776,0.002834786802699284,1.1484375,-0.23046875,9.69140625
388,611000000,imu1_frame,-0.008449155448858024,-0.05926887012470605,0.014026849882061059,0.9981077398200697,-0.002018580732109467,-0.007975297352145198,-0.002994342315327709,1.1484375,-0.23046875,9.69140625
388,636000000,imu1_frame,-0.008495700838757454,-0.059365266098934534,0.013990739367065238,0.998102122761105,-0.0019983949247883723,-0.007895544378623746,-0.002964398892174432,1.1484375,-0.23046875,9.69140625
388,661000000,imu1_frame,-0.00845051015973274,-0.059290068870934416,0.014007729488381566,0.9981067378421511,0.005814105075211628,0.005776330621376254,0.0009418511078255681,1.1484375,-0.23046875,9.69140625
388,686000000,imu1_frame,-0.008433155300401859,-0.05921628488778863,0.014071377451841978,0.9981103695645965,0.0038223702744595114,0.005718567315162491,0.0047996200967473125,1.1484375,-0.23046875,9.69140625
388,711000000,imu1_frame,-0.008436602892208095,-0.059288530398610824,0.01411045020155252,0.9981054999797976,0.0018692452744595114,-0.006000182684837509,0.0028464950967473125,1.1484375,-0.23046875,9.69140625
388,736000000,imu1_frame,-0.008481688294556514,-0.059408558597871995,0.014050184317447388,0.9980988310030441,-0.0020166346782850837,-0.009807368357989133,-0.004916344854220161,1.1484375,-0.23046875,9.69140625
388,761000000,imu1_frame,-0.008526162716096228,-0.05952616022434659,0.0139905290543731,0.9980922832559437,-0.0019964683315022327,-0.009709294674409242,-0.004867181405677959,1.1484375,-0.23046875,9.69140625
388,786000000,imu1_frame,-0.008599153994660812,-0.05956945456651901,0.014001764300038879,0.9980889164947729,-0.00391009739818721,-0.00381142047766515,0.0009822716583788205,1.1484375,-0.23046875,9.69140625
388,811000000,imu1_frame,-0.00864529651964424,-0.05963559065882387,0.013990408088931788,0.9980847276941802,-0.0019374026742053384,-0.005706900022888498,-0.0009611448082049677,1.1484375,-0.23046875,9.69140625
388,836000000,imu1_frame,-0.008690762974163413,-0.0597003546329473,0.013979162905375014,0.9980806186376391,-0.001918028647463285,-0.005649831022659614,-0.0009515333601229181,1.1484375,-0.23046875,9.69140625
388,861000000,imu1_frame,-0.008715596707622359,-0.059763510101347894,0.013966837133687092,0.998076794988681,-0.0018988483609886522,-0.005593332712433017,-0.0009420180265216889,1.1484375,-0.19140625,9.69140625
388,886000000,imu1_frame,-0.008487131775624613,-0.05914643491821397,0.014013407599220882,0.9981148692601202,0.019585526639011346,0.049094167287566985,0.0029642319734783113,1.1484375,-0.19140625,9.69140625
388,911000000,imu1_frame,-0.008263228823906534,-0.05854161081720857,0.014059577669979822,0.9981517555602816,0.019389671372621233,0.04860322561469131,0.0029345896537435277,1.1484375,-0.19140625,9.69140625
388,936000000,imu1_frame,-0.00804412534026845,-0.05792901240983244,0.014105544605179635,0.9981886370722335,0.01919577465889502,0.0481171933585444,0.0029052437572060926,1.109375,-0.19140625,9.69140625
388,961000000,imu1_frame,-0.008528001305026343,-0.0582750078191025,0.01394590160123274,0.9981667237921498,-0.03939797534110498,-0.028054681641455602,-0.010766631242793907,1.109375,-0.19140625,9.69140625
388,986000000,imu1_frame,-0.009002400346162119,-0.05861396149540604,0.013787627950972887,0.9981449101314438,-0.03900399558769393,-0.027774134825041045,-0.010658964930365968,1.109375,-0.19140625,9.69140625
389,11000000,imu1_frame,-0.009146805538562994,-0.058654042350307106,0.01379288924009868,0.9981411701111313,-0.011660245587693928,-0.004336634825041045,0.0010597850696340318,1.109375,-0.19140625,9.69140625
389,36000000,imu1_frame,-0.009139726677042648,-0.05866847311042191,0.013709054772416565,0.9981415418047722,5.850441230607179e-05,-0.0023835098250410444,-0.006752714930365968,1.109375,-0.19140625,9.69140625
389,61000000,imu1_frame,-0.009152803280111291,-0.05868270047579996,0.013627237136876368,0.9981417060042119,5.7919368183011076e-05,-0.002359674726790634,-0.006685187781062309,1.109375,-0.23046875,9.69140625
389,86000000,imu1_frame,-0.009303632493364066,-0.05920536957318293,0.013541493115893683,0.9981106124074243,-0.011660830631816988,-0.043375299726790634,-0.006685187781062309,1.109375,-0.23046875,9.69140625
389,111000000,imu1_frame,-0.009382510711173549,-0.059739873631166104,0.013509413447981816,0.9980784597112486,-0.005743441075498819,-0.04487514047952273,-0.0027511484032516857,1.109375,-0.23046875,9.69140625
389,136000000,imu1_frame,-0.009459700826460443,-0.060283296014924784,0.01347747179364163,0.9980454879592926,-0.005686006664743831,-0.0444263890747275,-0.0027236369192191684,1.1484375,-0.23046875,9.69140625
389,161000000,imu1_frame,-0.009515561413416074,-0.06081551857514953,0.013444673841632174,0.9980131099022274,-0.0056291465980963925,-0.043982125183980224,-0.002696400550026977,1.1484375,-0.19140625,9.69140625
389,186000000,imu1_frame,-0.009406568757984835,-0.061002425851993135,0.013419097116053226,0.9980030803243863,0.008042728401903607,-0.016638375183980224,-0.002696400550026977,1.1484375,-0.19140625,9.69140625
389,211000000,imu1_frame,-0.00931942639405106,-0.06120572222684378,0.013394855062317903,0.997991776377058,0.007962301117884572,-0.016471991432140422,-0.0026694365445267074,1.1875,-0.23046875,9.6875
389,236000000,imu1_frame,-0.009234450481724447,-0.061384894982534854,0.013371163100069893,0.9979818793894182,0.007882678106705726,-0.01630727151781902,-0.0026427421790814402,1.1484375,-0.23046875,9.69140625
389,261000000,imu1_frame,-0.009408417414305698,-0.062216854129196975,0.013361430459240427,0.9979288636571784,-0.013601696893294274,-0.06904164651781902,-0.0006896171790814402,1.1484375,-0.23046875,9.69140625
389,286000000,imu1_frame,-0.00957882859356139,-0.0630519593421036,0.013351589300633718,0.9978749578624789,-0.013465679924361332,-0.06835123005264084,-0.0006827210072906259,1.1875,-0.23046875,9.6875
389,311000000,imu1_frame,-0.009745989785443299,-0.06387020434035608,0.013341858899464723,0.9978214306586776,-0.01333102312511772,-0.06766771775211441,-0.0006758937972177197,1.1875,-0.23046875,9.6875
389,336000000,imu1_frame,-0.009801861400849293,-0.06385864433395379,0.013331810319593441,0.9978217575752248,-0.0035653981251177183,-0.0012614677521144205,-0.0006758937972177197,1.1875,-0.23046875,9.6875
389,361000000,imu1_frame,-0.009856749934693876,-0.06384703594859366,0.013321839608418401,0.9978220928956982,-0.003529744143866541,-0.0012488530745932763,-0.0006691348592455424,1.1875,-0.23046875,9.6875
389,386000000,imu1_frame,-0.01000737514594519,-0.06386029737513482,0.013330071728357125,0.9978196350290791,-0.011228821702427876,-0.0031699582938473437,0.0012711502393469131,1.1875,-0.23046875,9.6875
389,411000000,imu1_frame,-0.010155355789392279,-0.06385295775364637,0.01333838271983879,0.9978184985664081,-0.011116533485403597,-0.00313825871090887,0.001258438736953444,1.1484375,-0.23046875,9.69140625
389,436000000,imu1_frame,-0.010300226067121738,-0.06386534447847032,0.01334630062597872,0.9978161150117859,-0.01100536815054956,-0.0031068761237997814,0.0012458543495839096,1.1875,-0.23046875,9.6875
389,461000000,imu1_frame,-0.01044228401846515,-0.06387720575637532,0.013354064712858705,0.9978137753332935,-0.010895314469044065,-0.0030758073625617834,0.0012333958060880704,1.1875,-0.23046875,9.6875
389,486000000,imu1_frame,-0.010436291381549485,-0.0635744860204108,0.013270402867053707,0.9978342873228931,0.0008234355309559347,0.022314817637438217,-0.00657910419391193,1.1875,-0.23046875,9.6875
389,511000000,imu1_frame,-0.010430529190673107,-0.06327752667376416,0.013187552246715748,0.9978543216044082,0.0008152011756463754,0.022091669461063834,-0.006513313151972811,1.1875,-0.23046875,9.6875
389,536000000,imu1_frame,-0.010424993197639988,-0.062986243029467,0.013105505050835835,0.9978738890477217,0.0008070491638899116,0.021870752766453196,-0.006448180020453082,1.1875,-0.23046875,9.6875
389,561000000,imu1_frame,-0.010393147705486872,-0.06298671775942634,0.013052431147382127,0.997874886901063,0.002760174163889912,-0.0015667472335468041,-0.004495055020453082,1.1875,-0.23046875,9.6875
389,586000000,imu1_frame,-0.010362030913068181,-0.06298698745459023,0.012999914697932463,0.997875879027346,0.0027325724222510128,-0.001551079761211336,-0.004450104470248552,1.1875,-0.23046875,9.6875
389,611000000,imu1_frame,-0.0103817520992211,-0.06303494200062543,0.012993616306180693,0.9978727279796838,-0.0011619408019714977,-0.005402756463599222,-0.000538415925546066,1.1875,-0.23046875,9.6875
389,636000000,imu1_frame,-0.01044766288829611,-0.06317787639660113,0.012985321250706422,0.9978631087008901,-0.005017508893951783,-0.01308310389896323,-0.0005330317662906054,1.1875,-0.23046875,9.6875
389,661000000,imu1_frame,-0.010512326416300519,-0.06331775451936977,0.012977094446421216,0.997853670622938,-0.004967333805012264,-0.012952272859973598,-0.0005277014486276994,1.1875,-0.23046875,9.6875
389,686000000,imu1_frame,-0.010599328836985441,-0.06347881002769167,0.012967647438220611,0.9978426404126012,-0.006851254216962142,-0.014756343881373863,-0.0005224244341414225,1.1875,-0.23046875,9.6875
389,711000000,imu1_frame,-0.010685047502504196,-0.06363861649545764,0.012958269485982415,0.9978316689213377,-0.006782741674792521,-0.014608780442560124,-0.0005172001898000084,1.1875,-0.23046875,9.65234375
389,736000000,imu1_frame,-0.01076870945470702,-0.06379280734443078,0.012948960224312836,0.9978210446051464,-0.006714914258044596,-0.014462692638134522,-0.0005120281879020083,1.1875,-0.23046875,9.6875
389,761000000,imu1_frame,-0.010850740296290483,-0.06394365575591529,0.0129397192167445,0.9978106203033636,-0.0066477651154641495,-0.014318065711753177,-0.0005069079060229882,1.1875,-0.23046875,9.6875
389,786000000,imu1_frame,-0.010768135714090386,-0.06370493137138113,0.01293719184817812,0.9978268176589032,0.0070241098845358505,0.01693193428824682,-0.0005069079060229882,1.1875,-0.23046875,9.6875
389,811000000,imu1_frame,-0.010687201110332703,-0.06347069151546063,0.012934712729543139,0.9978426470428996,0.006953868785690492,0.016762614945364355,-0.0005018388269627584,1.1875,-0.23046875,9.6875
389,836000000,imu1_frame,-0.01060791137335296,-0.06324087053151344,0.012932281206003041,0.9978581164742412,0.006884330097833587,0.01659498879591071,-0.0004968204386931307,1.1875,-0.23046875,9.6875
389,861000000,imu1_frame,-0.01055680798665107,-0.06303908777124465,0.012976845557833263,0.9978708477039855,0.004881893046855251,0.014495445157951604,0.0033753352656938004,1.1875,-0.23046875,9.6875
389,886000000,imu1_frame,-0.01050630269093626,-0.06283870212302686,0.013020972391258897,0.9978834447956566,0.004833074116386699,0.014350490706372088,0.003341581913036863,1.1875,-0.23046875,9.7265625
389,911000000,imu1_frame,-0.010457259483742891,-0.06264453136144947,0.013064665951368126,0.9978955972035217,0.004784743375222831,0.014206985799308368,0.003308166093906494,1.1875,-0.23046875,9.6875
389,936000000,imu1_frame,-0.010472199204260063,-0.06267132421184922,0.013008612297037378,0.9978944905006065,-0.0010746316247771685,-0.003371139200691633,-0.004504333906093506,1.1875,-0.23046875,9.6875
389,961000000,imu1_frame,-0.01048693221125179,-0.06269741916010117,0.012953121065508607,0.997893418426097,-0.0010638853085293968,-0.0033374278086847164,-0.004459290567032571,1.1875,-0.23046875,9.6875
389,986000000,imu1_frame,-0.010453701877389266,-0.06272220823035346,0.012901246542077267,0.9978928813001061,0.002813941044555897,-0.0033040535305978694,-0.004414697661362245,1.1875,-0.23046875,9.6875
390,11000000,imu1_frame,-0.010421221581928443,-0.06274633478497889,0.012849920685833818,0.9978923665156275,0.002785801634110338,-0.003271012995291891,-0.004370550684748623,1.1875,-0.23046875,9.6875
390,36000000,imu1_frame,-0.010389479652143601,-0.06276980961707684,0.012799137717019987,0.9978918737954,0.0027579436177692348,-0.0032383028653389717,-0.004326845177901137,1.1875,-0.23046875,9.6875
390,61000000,imu1_frame,-0.01035846457323993,-0.06279264336921903,0.012748891916433303,0.9978914028617012,0.0027303641815915425,-0.0032059198366855817,-0.004283576726122125,1.1875,-0.23046875,9.6875
390,86000000,imu1_frame,-0.010466652112839725,-0.06327534402789226,0.012694244255400822,0.9978604793228785,-0.008988385818408457,-0.04031529483668558,-0.004283576726122125,1.1875,-0.23046875,9.6875
390,111000000,imu1_frame,-0.010572776597827441,-0.06374819866236946,0.012640144794623364,0.9978299505937305,-0.008898501960224374,-0.03991214188831873,-0.004240740958860904,1.1875,-0.23046875,9.6875
390,136000000,imu1_frame,-0.010676868797300738,-0.06421135637585552,0.012586588134074546,0.9977998215996039,-0.008809516940622129,-0.03951302046943554,-0.004198333549272295,1.1875,-0.23046875,9.6875
390,161000000,imu1_frame,-0.010622449524519809,-0.06425673490285716,0.012637055633961256,0.9977968432554931,0.0048623580593778705,-0.0063098954694355384,0.0036141664507277054,1.1875,-0.23046875,9.6875
390,186000000,imu1_frame,-0.010662567191250314,-0.06449581746137793,0.012683322931144492,0.9977804029496194,-0.002950141940622129,-0.02193489546943554,0.0036141664507277054,1.1875,-0.23046875,9.6875
390,211000000,imu1_frame,-0.010701610625852821,-0.06474960475959622,0.012728890558084837,0.9977629676223954,-0.0029206405212159076,-0.021715546514741182,0.003578024786220428,1.2265625,-0.23046875,9.6875
390,236000000,imu1_frame,-0.010620847144031574,-0.0645418843181778,0.01270434788304013,0.9977776016324825,0.006844984478784092,0.015393828485258818,-0.002281350213779572,1.2265625,-0.23046875,9.6875
390,261000000,imu1_frame,-0.01054174408620386,-0.06433814409262836,0.012680079142823516,0.9977919073831322,0.006776534633996251,0.015239890200406229,-0.002258536711641776,1.2265625,-0.23046875,9.6875
390,286000000,imu1_frame,-0.010490594958347027,-0.06418588080868758,0.01270325615482564,0.9978019580083504,0.004775175537656289,0.011220303798402166,0.0016312361554746417,1.2265625,-0.23046875,9.6875
390,311000000,imu1_frame,-0.010440500570063255,-0.06403653611800415,0.01272621739419318,0.9978117865512964,0.004727423782279726,0.011108100760418144,0.0016149237939198954,1.2265625,-0.23046875,9.6875
390,336000000,imu1_frame,-0.010391444990682957,-0.06389006693001326,0.012748964886229092,0.9978213974018666,0.004680149544456928,0.010997019752813962,0.0015987745559806964,1.2265625,-0.23046875,9.6875
390,361000000,imu1_frame,-0.010343412500805324,-0.06374643072223692,0.012771500636626403,0.9978307948542688,0.004633348049012359,0.010887049555285824,0.0015827868104208896,1.2265625,-0.23046875,9.6875
390,386000000,imu1_frame,-0.010388860694737977,-0.06372643397866626,0.012764753239798867,0.9978316863382096,-0.0031473604314777646,0.001110210309732965,-0.00036663480768331933,1.2265625,-0.23046875,9.6875
390,411000000,imu1_frame,-0.010433473069414254,-0.06370676768505633,0.012758047867791618,0.9978325624098641,-0.003115886827162987,0.0010991082066356352,-0.0003629684596064861,1.2265625,-0.23046875,9.6875
390,436000000,imu1_frame,-0.0104772617947022,-0.06368742723248143,0.012751384354097589,0.9978334233702773,-0.003084727958891357,0.0010881171245692787,-0.00035933877501042114,1.2265625,-0.23046875,9.6875
390,461000000,imu1_frame,-0.010516626082221257,-0.0638614695671394,0.012722402946823513,0.9978222555865501,-0.003084727958891357,-0.014536882875430722,-0.002312463775010421,1.2265625,-0.23046875,9.6875
390,486000000,imu1_frame,-0.010680728136085697,-0.06391335608672888,0.012756980239234052,0.997816748915045,-0.012721849429302443,-0.004723545296676414,0.003511442112739683,1.2265625,-0.23046875,9.6875
390,511000000,imu1_frame,-0.010841581847890091,-0.06396412575172594,0.012791118711854153,0.9978113238493298,-0.01259463093500942,-0.00467630984370965,0.003476327691612286,1.2265625,-0.23046875,9.6875
390,536000000,imu1_frame,-0.010967163747989415,-0.0642804022213488,0.01273224897255983,0.9977903793110491,-0.01064150593500942,-0.02616068484370965,-0.004336172308387714,1.2265625,-0.23046875,9.6875
390,561000000,imu1_frame,-0.011017137835237056,-0.06447048038590085,0.012629068133262832,0.9977788765406972,-0.004734309625659325,-0.016231109245272553,-0.008159998085303837,1.2265625,-0.23046875,9.6875
390,586000000,imu1_frame,-0.010997593301023855,-0.06453607965482058,0.012554404048650991,0.997775793604633,0.0011138147205972684,-0.006400829402819828,-0.006144804354450798,1.2265625,-0.23046875,9.6875
390,611000000,imu1_frame,-0.010978487007810588,-0.06460021741134295,0.012480511003400311,0.99777278053599,0.0011026765733912957,-0.00633682110879163,-0.00608335631090629,1.2265625,-0.23046875,9.6875
390,636000000,imu1_frame,-0.010959491808495935,-0.06468244066957085,0.012407130184570594,0.9977685776415843,0.0010916498076573827,-0.006273452897703713,-0.0060225227477972276,1.265625,-0.23046875,9.69140625
390,661000000,imu1_frame,-0.01094092452649231,-0.06476305209816711,0.012334507952329229,0.9977644527477463,0.0010807333095808089,-0.006210718368726676,-0.005962297520319255,1.265625,-0.23046875,9.69140625
390,686000000,imu1_frame,-0.010901322473119673,-0.06476989766931263,0.012287528756213277,0.9977650215162431,0.0030035197264850007,-0.0003478299350394094,-0.003969080795116062,1.265625,-0.23046875,9.69140625
390,711000000,imu1_frame,-0.010862547949668629,-0.0647766260352011,0.012241048047220844,0.997765578938381,0.0029734845292201505,-0.0003443516356890152,-0.003929389987164902,1.265625,-0.23046875,9.69140625
390,736000000,imu1_frame,-0.010824588371130936,-0.06478323887882485,0.012195060553785976,0.9977661252743822,0.0029437496839279493,-0.00034090811933212514,-0.0038900960872932525,1.265625,-0.23046875,9.69140625
390,761000000,imu1_frame,-0.010787747174903772,-0.06477021357662495,0.012149807968204791,0.9977679219690643,0.0029143121870886697,-0.00033749903813880397,-0.00385119512642032,1.2265625,-0.23046875,9.6875
390,786000000,imu1_frame,-0.010846089639292598,-0.0650235031397425,0.012125479964391818,0.9977511108059993,-0.00489818781291133,-0.021821874038138803,-0.00189807012642032,1.2265625,-0.23046875,9.6875
390,811000000,imu1_frame,-0.010902992310670179,-0.06529107215998825,0.012101144776643692,0.9977333125389608,-0.004849205934782217,-0.021603655297757415,-0.001879089425156117,1.265625,-0.23046875,9.69140625
390,836000000,imu1_frame,-0.010959104306711815,-0.06553375752738204,0.012077300001732115,0.99771707586961,-0.004800713875434395,-0.021387618744779843,-0.0018602985309045558,1.2265625,-0.23046875,9.6875
390,861000000,imu1_frame,-0.011046708438959068,-0.06550825307923518,0.012121927896422335,0.997717243448887,-0.006753838875434395,9.67562552201583e-05,0.003999076469095444,1.2265625,-0.23046875,9.6875
390,886000000,imu1_frame,-0.011106245547376993,-0.0655546076351911,0.012144350984992579,0.9977132651552705,-0.004752706736680051,-0.005704992557332043,0.00202549195440449,1.2265625,-0.23046875,9.6875
390,911000000,imu1_frame,-0.011164264418354287,-0.0656193147652127,0.012166266560515053,0.9977080969340278,-0.00470517966931325,-0.005647942631758723,0.002005237034860445,1.265625,-0.23046875,9.69140625
390,936000000,imu1_frame,-0.011080622312724017,-0.06551254441900016,0.012220284171535317,0.9977153857627326,0.00701357033068675,0.008023932368241277,0.003958362034860444,1.265625,-0.23046875,9.69140625
390,961000000,imu1_frame,-0.01099860047531872,-0.06540785350219276,0.012273799989035829,0.9977225051694731,0.0069434346273798825,0.007943693044558865,0.003918778414511841,1.265625,-0.23046875,9.69140625
390,986000000,imu1_frame,-0.010951599091007931,-0.06498995811457149,0.012419634851141685,0.9977485256775779,0.0049903096273798825,0.033334318044558865,0.011731278414511841,1.265625,-0.23046875,9.69140625
391,11000000,imu1_frame,-0.010905443770151119,-0.06458038403934946,0.01256398413972413,0.9977738178545492,0.004940406531106084,0.033000974864113276,0.011613965630366723,1.265625,-0.23046875,9.69140625
391,36000000,imu1_frame,-0.01086044918226261,-0.06415948224696416,0.012707112455421086,0.9977996496162977,0.0048910024657950225,0.03267096511547214,0.011497825974063056,1.2265625,-0.23046875,9.6875
391,61000000,imu1_frame,-0.010816274366983982,-0.06374684931105935,0.012848781084070145,0.997824762288642,0.004842092441137072,0.03234425546431742,0.011382847714322424,1.2265625,-0.23046875,9.6875
391,86000000,imu1_frame,-0.010764172854473383,-0.0635082065804067,0.012894854312175097,0.9978399485949474,0.004842092441137072,0.01867238046431742,0.0035703477143224243,1.2265625,-0.23046875,9.6875
391,111000000,imu1_frame,-0.010713102616264111,-0.06327426957038436,0.01294046990332459,0.997854769233153,0.0047936715167257015,0.01848565665967425,0.0035346442371792,1.2265625,-0.23046875,9.6875
391,136000000,imu1_frame,-0.01066304837290204,-0.06304496816929507,0.0129856324448237,0.9978692322834378,0.004745734801558444,0.018300800093077503,0.003499297794807408,1.2265625,-0.23046875,9.6875
391,161000000,imu1_frame,-0.0107281598061105,-0.06315744374431696,0.013002351778929869,0.99786120414368,-0.005019890198441556,-0.009042949906922495,0.001546172794807408,1.2265625,-0.23046875,9.6875
391,186000000,imu1_frame,-0.010722476062479593,-0.06321873197783894,0.013047094197003947,0.9978568002309842,0.0008310899535428603,-0.0050853329078532706,0.003464304816859334,1.2265625,-0.23046875,9.6875
391,211000000,imu1_frame,-0.010736549927177515,-0.0632988051726685,0.013092411435005393,0.9978509791157146,0.0008227790540074316,-0.005034479578774738,0.003429661768690741,1.265625,-0.26953125,9.6875
391,236000000,imu1_frame,-0.010975914702455476,-0.06354795335856604,0.013296055677401157,0.9978298461279886,-0.016755345945992567,-0.018706354578774738,0.01710153676869074,1.265625,-0.26953125,9.6875
391,261000000,imu1_frame,-0.011190612662011773,-0.06379181000151166,0.013496277212348215,0.9978092130594843,-0.016587792486532645,-0.01851929103298699,0.016930521401003835,1.265625,-0.23046875,9.69140625
391,286000000,imu1_frame,-0.011252657483727196,-0.0638879256810341,0.01358236378695563,0.9978011976569718,-0.004869042486532643,-0.00680054103298699,0.007164896401003833,1.265625,-0.23046875,9.69140625
391,311000000,imu1_frame,-0.0113133827690032,-0.06398225023398543,0.013667552510658817,0.9977933037627013,-0.004820352061667316,-0.00673253562265712,0.007093247436993795,1.265625,-0.23046875,9.69140625
391,336000000,imu1_frame,-0.011392786582654886,-0.06407531125349679,0.013753125931177609,0.9977852526614988,-0.004772148541050643,-0.006665210266430549,0.007022314962623857,1.265625,-0.26953125,9.6875
391,361000000,imu1_frame,-0.011470710783880726,-0.06416662823704825,0.013837810529222783,0.997777320655545,-0.004724427055640136,-0.006598558163766244,0.0069520918129976185,1.265625,-0.26953125,9.6875
391,386000000,imu1_frame,-0.011495057037244502,-0.064351608184445,0.013877643124864425,0.9977645740399311,-0.0008099952850837355,-0.014266947582128582,0.003015383394867642,1.265625,-0.26953125,9.6875
391,411000000,imu1_frame,-0.011499404774941381,-0.06451295365885996,0.013916078334730832,0.9977535694067016,-0.000801895332232898,-0.014124278106307295,0.0029852295609189656,1.2265625,-0.23046875,9.6875
391,436000000,imu1_frame,-0.011503235677759129,-0.06469047109370715,0.013953875374279669,0.9977415035371915,-0.0007938763789105692,-0.013983035325244222,0.0029553772653097762,1.265625,-0.23046875,9.69140625
391,461000000,imu1_frame,-0.011462284471145988,-0.0645040862255767,0.013966262068337374,0.9977538686563658,0.0031123736210894306,0.015313839674755778,0.0010022522653097762,1.265625,-0.23046875,9.69140625
391,486000000,imu1_frame,-0.011399400764849578,-0.06434473116924933,0.014004493606545166,0.9977643426139179,0.005014843634878537,0.013227107528008219,0.0029258234926566786,1.265625,-0.23046875,9.69140625
391,511000000,imu1_frame,-0.01133804369206511,-0.06416909397404501,0.014042621746275586,0.9977758169640504,0.0049646951985297515,0.013094836452728138,0.002896565257730112,1.2265625,-0.23046875,9.6875
391,536000000,imu1_frame,-0.011296148642956262,-0.0640696125399282,0.01400730587387644,0.9977831814362154,0.0029814544965444537,0.007163106838200856,-0.0029331816448471895,1.2265625,-0.23046875,9.6875
391,561000000,imu1_frame,-0.011255072818185642,-0.06397200686520643,0.013972357684221677,0.9977903982772333,0.0029516399515790094,0.007091475769818847,-0.0029038498283987177,1.2265625,-0.23046875,9.6875
391,586000000,imu1_frame,-0.011218681487770216,-0.06392320039970167,0.014010667149359191,0.9977933988769245,0.0029221235520632194,0.003153373512120659,0.0029259699198852696,1.2265625,-0.23046875,9.6875
391,611000000,imu1_frame,-0.011202854318380685,-0.06387528431364893,0.01404987814353947,0.9977960939155472,0.0028929023165425874,0.003121839776999452,0.002896710220686417,1.2265625,-0.26953125,9.69140625
391,636000000,imu1_frame,-0.011187489357774935,-0.06382824601163213,0.014088709662237162,0.9977987288792272,0.0028639732933771612,0.0030906213792294577,0.002867743118479553,1.2265625,-0.26953125,9.69140625
391,661000000,imu1_frame,-0.011224532886035143,-0.0638058277089282,0.014196667877892687,0.997798216491207,-0.0010318539395566101,0.0011261214154371633,0.008639846937294757,1.2265625,-0.26953125,9.69140625
391,686000000,imu1_frame,-0.011255575495316247,-0.06373710458775751,0.014206518964441894,0.997802118828153,-0.0010215354001610441,0.004982047701282792,0.0008190734679218097,1.2265625,-0.26953125,9.69140625
391,711000000,imu1_frame,-0.011266579573999135,-0.06364987730965398,0.014215248208792835,0.9978074383474657,-0.0010113200461594337,0.004932227224269964,0.0008108827332425916,1.1875,-0.23046875,9.6875
391,736000000,imu1_frame,-0.011277017779072643,-0.06358393470766135,0.014223612949824972,0.9978114055029418,-0.0010012068456978394,0.004882904952027264,0.0008027739059101657,1.2265625,-0.23046875,9.6875
391,761000000,imu1_frame,-0.01119019116765646,-0.06351816124656226,0.014213970445258852,0.9978167095502403,0.006743180222759139,0.004834075902506991,-0.001138847583148936,1.2265625,-0.23046875,9.6875
391,786000000,imu1_frame,-0.011105068906017887,-0.06345365142239504,0.014204469515672221,0.9978219002465,0.0066757484205315475,0.004785735143481922,-0.0011274591073174465,1.2265625,-0.23046875,9.6875
391,811000000,imu1_frame,-0.011041519619586139,-0.06339038933357659,0.014196368784600333,0.997826741723211,0.006608990936326232,0.004737877792047102,-0.0011161845162442723,1.2265625,-0.26953125,9.69140625
391,836000000,imu1_frame,-0.011146070189934945,-0.06342662764605216,0.014178450957558946,0.9978235312685376,-0.007062884063673768,-0.003074622207952898,-0.0011161845162442723,1.2265625,-0.26953125,9.69140625
391,861000000,imu1_frame,-0.011249052012715479,-0.06344231252417058,0.014160926404308317,0.9978216273331485,-0.00699225522303703,-0.0030438759858733688,-0.0011050226710818294,1.1875,-0.26953125,9.69140625
391,886000000,imu1_frame,-0.011371710841748614,-0.06369935040045556,0.014144562581042344,0.9978040931467873,-0.00894538022303703,-0.02257512598587337,-0.0011050226710818294,1.1875,-0.26953125,9.69140625
391,911000000,imu1_frame,-0.011491779278912175,-0.06397079925632038,0.014128077796557543,0.9977855848173428,-0.00885592642080666,-0.022349374726014636,-0.0010939724443710113,1.2265625,-0.26953125,9.69140625
391,936000000,imu1_frame,-0.01160961279197943,-0.06423674920693674,0.014111734994977924,0.9977673656106302,-0.008767367156598593,-0.022125880978754488,-0.001083032719927301,1.2265625,-0.26953125,9.69140625
391,961000000,imu1_frame,-0.01161798630772735,-0.06406313143875306,0.014195540949732636,0.9977772417737133,0.0009982578434014069,0.01303036902124551,0.006729467280072699,1.2265625,-0.26953125,9.69140625
391,986000000,imu1_frame,-0.011848389076093768,-0.06396557758896851,0.014363390803414582,0.9977783890046125,-0.016579867156598593,0.007170994021245511,0.014541967280072699,1.2265625,-0.26953125,9.69140625
392,11000000,imu1_frame,-0.012074215578494312,-0.06386988867702774,0.014529406396660246,0.9977794079796941,-0.016414068485032608,0.007099284081033056,0.014396547607271971,1.2265625,-0.26953125,9.69140625
392,36000000,imu1_frame,-0.012295862441740166,-0.06375624446109965,0.014693890910862966,0.9977815605777298,-0.016249927800182282,0.007028291240222725,0.014252582131199253,1.1875,-0.26953125,9.69140625
392,61000000,imu1_frame,-0.012359908613107354,-0.06373985347463879,0.014722717865866982,0.99778139154664,-0.004531177800182281,-0.0007842087597772745,0.0025338321311992526,1.1875,-0.26953125,9.69140625
392,86000000,imu1_frame,-0.012377887832059968,-0.06362703021008252,0.014777238709857149,0.9977875636304424,-0.0006186785221804583,0.006958008327820498,0.00444208755988726,1.1875,-0.26953125,9.69140625
392,111000000,imu1_frame,-0.012395200050263356,-0.06353599882822458,0.014830906942597245,0.9977923531816998,-0.0006124917369586538,0.006888428244542293,0.004397666684288387,1.2265625,-0.26953125,9.69140625
392,136000000,imu1_frame,-0.012532113819950525,-0.06299092991687143,0.014749106587802078,0.9978264141253596,-0.010378116736958654,0.04399780324454229,-0.005367958315711613,1.2265625,-0.26953125,9.69140625
392,161000000,imu1_frame,-0.012666721542076735,-0.06243689040251612,0.014668253202212649,0.9978607273714282,-0.010274335569589068,0.04355782521209687,-0.005314278732554497,1.1875,-0.26953125,9.69140625
392,186000000,imu1_frame,-0.013069002346029259,-0.06225221445443185,0.014721163361222618,0.9978662988208847,-0.031758710569589066,0.014260950212096871,0.006404471267445503,1.1875,-0.26953125,9.69140625
392,211000000,imu1_frame,-0.013463244561479275,-0.06207109011894075,0.014773277785936482,0.9978715704341836,-0.031441123463893175,0.014118340709975901,0.006340426554771048,1.1875,-0.26953125,9.69140625
392,236000000,imu1_frame,-0.013850413386901121,-0.06187601680816041,0.014824917714601846,0.9978776209574617,-0.031126712229254245,0.013977157302876143,0.006277022289223338,1.1484375,-0.26953125,9.65234375
392,261000000,imu1_frame,-0.014179352224303585,-0.06209218947191999,0.01488516827139374,0.9978586762375795,-0.027220462229254245,-0.01922596769712386,0.006277022289223338,1.1484375,-0.26953125,9.65234375
392,286000000,imu1_frame,-0.014626787119530511,-0.06252403177369986,0.015013831494794908,0.9978233247490095,-0.03698608722925424,-0.036804092697123855,0.012136397289223338,1.1484375,-0.26953125,9.65234375
392,311000000,imu1_frame,-0.01506423402052972,-0.06296440240851373,0.015140663596400462,0.9977872083708902,-0.036616226356961705,-0.03643605177015262,0.012015033316331105,1.1875,-0.26953125,9.69140625
392,336000000,imu1_frame,-0.015492922927222782,-0.06341838242728239,0.015265643740645554,0.9977499878379662,-0.036250064093392084,-0.03607169125245109,0.011894882983167793,1.2265625,-0.26953125,9.6484375
392,361000000,imu1_frame,-0.015509686437922882,-0.06330838548653,0.015310766092745945,0.9977560214778658,-0.003046939093392085,0.008850183747548908,0.0040823829831677936,1.2265625,-0.26953125,9.6484375
392,386000000,imu1_frame,-0.015500087439782215,-0.06322446587702553,0.01533320602873923,0.9977611472676235,-0.001082875952458164,0.0068280881600734184,0.0021079654033361156,1.2265625,-0.26953125,9.6484375
392,411000000,imu1_frame,-0.015490741897882626,-0.0631223549181711,0.015355750158920354,0.9977674108538996,-0.0010720471929335823,0.006759807278472684,0.0020868857493027545,1.1875,-0.26953125,9.6484375
392,436000000,imu1_frame,-0.015455598439747364,-0.06314111206260653,0.015381478899971239,0.9977663727302181,0.0008722670289957536,-0.0029757595443120426,0.0020660168918097267,1.1875,-0.26953125,9.6484375
392,461000000,imu1_frame,-0.01541998450278177,-0.06317642800390418,0.015406620840049389,0.9977643003519883,0.0008635443587057959,-0.002946001948868922,0.0020453567228916297,1.2265625,-0.26953125,9.69140625
392,486000000,imu1_frame,-0.015558148490295454,-0.06359725999485617,0.0155974661490921,0.9977324549128532,-0.012808330641294205,-0.034196001948868925,0.01571723172289163,1.2265625,-0.26953125,9.69140625
392,511000000,imu1_frame,-0.01569317071158664,-0.06400968136474497,0.01578633620557745,0.9977009956263477,-0.012680247334881262,-0.033854041929380234,0.015560059405662713,1.2265625,-0.26953125,9.69140625
392,536000000,imu1_frame,-0.01582509953324387,-0.06441381889385252,0.015973251575438017,0.9976699260749422,-0.01255344486153245,-0.03351550151008643,0.015404458811606086,1.2265625,-0.26953125,9.69140625
392,561000000,imu1_frame,-0.01580783585705769,-0.06433200457259358,0.015991361696744963,0.9976751885580157,-0.0008346948615324495,0.005546998489913569,0.0017325838116060862,1.2265625,-0.26953125,9.69140625
392,586000000,imu1_frame,-0.015883334160101632,-0.06439761710362808,0.015981111568208924,0.9976699207054294,-0.00864719486153245,-0.006171751510086431,-0.00022054118839391387,1.2265625,-0.26953125,9.69140625
392,611000000,imu1_frame,-0.015957032730881955,-0.06446179113899218,0.015970907795133354,0.9976647636825597,-0.008560722912917125,-0.006110033994985566,-0.00021833577650997473,1.2265625,-0.26953125,9.69140625
392,636000000,imu1_frame,-0.016028960027644253,-0.06452454891170362,0.01596075049385218,0.9976597162719594,-0.008475115683787953,-0.006048933655035711,-0.00021615241874487498,1.2265625,-0.26953125,9.69140625
392,661000000,imu1_frame,-0.015880051035299533,-0.06448790643978185,0.015890225692212816,0.9976655925858027,0.009103009316212047,0.0017635663449642894,-0.0060755274187448745,1.2265625,-0.26953125,9.69140625
392,686000000,imu1_frame,-0.015758860579760052,-0.06447571830123044,0.01584340302498956,0.997669046649918,0.007078385473049925,-0.00018766306848535348,-0.004081178394557426,1.2265625,-0.26953125,9.69140625
392,711000000,imu1_frame,-0.01563952350175178,-0.06448365791930648,0.015796752289711228,0.9976711511229949,0.0070076016183194265,-0.0001857864378004999,-0.004040366610611852,1.265625,-0.26953125,9.6875
392,736000000,imu1_frame,-0.015476837154365094,-0.06444262211647978,0.01577712497460522,0.997676650169776,0.010804713102136232,0.003683258926577505,-0.0020663691945057333,1.265625,-0.26953125,9.6875
392,761000000,imu1_frame,-0.015412232752374824,-0.06433272316153102,0.015726240168279237,0.9976855462430927,0.0029622909711148697,0.00944720758731173,-0.003979299252560676,1.265625,-0.26953125,9.6875
392,786000000,imu1_frame,-0.015299016321176678,-0.06415343891753425,0.0156296664939362,0.9977003507566523,0.006799855561403721,0.015153516761438612,-0.00780669376003507,1.265625,-0.26953125,9.6875
392,811000000,imu1_frame,-0.015187861191612516,-0.06397779959081372,0.015534098078167196,0.9977148198903532,0.006731857005789684,0.015001981593824227,-0.007728626822434719,1.265625,-0.26953125,9.6875
392,836000000,imu1_frame,-0.015079587138680576,-0.06378849340185841,0.015439856773820518,0.9977300461467781,0.006664538435731787,0.014851961777885985,-0.007651340554210372,1.2265625,-0.26953125,9.6484375
392,861000000,imu1_frame,-0.014972458038479413,-0.06362015292601858,0.015346262922835897,0.9977438518258378,0.006597893051374469,0.014703442160107124,-0.007574827148668268,1.265625,-0.26953125,9.6875
392,886000000,imu1_frame,-0.014820782822142307,-0.06318782138964397,0.015227443082263918,0.9977754099003172,0.01050414305137447,0.036187817160107126,-0.009527952148668268,1.265625,-0.26953125,9.6875
392,911000000,imu1_frame,-0.014672273501722555,-0.06274422021141991,0.015110178883860148,0.9978073810683349,0.010399101620860725,0.035825938988506056,-0.009432672627181586,1.2265625,-0.26953125,9.69140625
392,936000000,imu1_frame,-0.014526606401938128,-0.06230945034574054,0.014994117077465523,0.9978385072531136,0.010295110604652116,0.035467679598620995,-0.00933834590090977,1.2265625,-0.26953125,9.69140625
392,961000000,imu1_frame,-0.014449056302757918,-0.06236209788729396,0.014905012716657362,0.9978376792419555,0.004435735604652117,-0.003594820401379007,-0.007385220900909769,1.2265625,-0.26953125,9.69140625
392,986000000,imu1_frame,-0.014483813792194421,-0.06282669223371498,0.014765616506075894,0.9978101034015433,-0.005329889395347883,-0.036797945401379005,-0.01129147090090977,1.2265625,-0.26953125,9.69140625
393,11000000,imu1_frame,-0.014517532396637762,-0.0633020653388337,0.014627313137406438,0.997781605105712,-0.005276590501394405,-0.036429965947365216,-0.011178556191900672,1.265625,-0.26953125,9.6875
393,36000000,imu1_frame,-0.014418362185429601,-0.06335916841572688,0.014589760802957439,0.9977799684746481,0.006442159498605595,-0.0032268409473652174,-0.0033660561919006717,1.265625,-0.26953125,9.6875
393,61000000,imu1_frame,-0.014347805948619896,-0.06331980869134787,0.01457380442044189,0.9977837173037386,0.0044441441536195395,0.004539802462108435,-0.0013988018799816649,1.265625,-0.26953125,9.6875
393,86000000,imu1_frame,-0.014227657506747645,-0.06318622842298535,0.014487385458179803,0.9977951643309038,0.008266890212083345,0.01222877943748735,-0.007185595111181848,1.265625,-0.26953125,9.6875
393,111000000,imu1_frame,-0.014110080624577954,-0.06303544945382204,0.014402203859417892,0.997807603829974,0.00818422130996251,0.012106491643112477,-0.00711373916007003,1.2265625,-0.26953125,9.69140625
393,136000000,imu1_frame,-0.014042183414041136,-0.06291222628137269,0.014315191177770336,0.9978175906300869,0.0042351915968628865,0.010051832976681352,-0.00704260176846933,1.2265625,-0.26953125,9.69140625
393,161000000,imu1_frame,-0.013975577173756656,-0.06279145840854611,0.014229071361230142,0.9978273645885771,0.004192839680894257,0.009951314646914539,-0.0069721757507846364,1.2265625,-0.26953125,9.69140625
393,186000000,imu1_frame,-0.013882001091437666,-0.06281658123169977,0.014122239137116004,0.9978286072917597,0.006145964680894257,-0.0017674353530854612,-0.008925300750784636,1.2265625,-0.26953125,9.69140625
393,211000000,imu1_frame,-0.013790254296197709,-0.06284121490212215,0.01401653454347658,0.9978298188345862,0.006084505034085315,-0.0017497609995546066,-0.00883604774327679,1.2265625,-0.26953125,9.69140625
393,236000000,imu1_frame,-0.013700309596621168,-0.06286536682612665,0.013911945720301943,0.9978310001884332,0.0060236599837444615,-0.0017322633895590605,-0.008747687265844021,1.2265625,-0.26953125,9.69140625
393,261000000,imu1_frame,-0.013660385814518153,-0.06296101386158134,0.013830511466431631,0.9978266490455631,0.0020962358839070167,-0.0075157220056634695,-0.0067266166431855815,1.2265625,-0.26953125,9.69140625
393,286000000,imu1_frame,-0.013627364703976923,-0.0629344046773498,0.013820605065276378,0.9978289164555024,0.0020752735250679465,0.002227403964393165,-0.0008585692267537258,1.2265625,-0.26953125,9.69140625
393,311000000,imu1_frame,-0.013594937994589223,-0.06290833751138102,0.013810810755066521,0.9978311381384954,0.002054520789817267,0.002205129924749233,-0.0008499835344861885,1.2265625,-0.26953125,9.69140625
393,336000000,imu1_frame,-0.013562842056335449,-0.06290283758155316,0.013800821423471221,0.997832059851547,0.0020339755819190944,0.002183078625501741,-0.0008414836991413267,1.265625,-0.26953125,9.6875
393,361000000,imu1_frame,-0.013531489640192714,-0.06277860188475062,0.013765173600004375,0.9978408018964122,0.0020136358260999035,0.011829216589246723,-0.0027666626121499137,1.265625,-0.26953125,9.6875
393,386000000,imu1_frame,-0.013521957434955439,-0.06263415560412668,0.01367978631494961,0.997851182624575,5.990571783890449e-05,0.013644518173354256,-0.006606183486028414,1.265625,-0.26953125,9.6875
393,411000000,imu1_frame,-0.013512609265944697,-0.06249281439525892,0.013595236565091097,0.9978613265792622,5.93066606605153e-05,0.013508072991620714,-0.00654012165116813,1.265625,-0.26953125,9.6875
393,436000000,imu1_frame,-0.013387983613311035,-0.06228063314599172,0.013566387592345833,0.9978766646020932,0.00972668234405391,0.019173773511704507,-0.002607532934656449,1.265625,-0.26953125,9.6875
393,461000000,imu1_frame,-0.013266056847454785,-0.06205291206546826,0.013538174971011688,0.997892862815628,0.00962941552061337,0.018982035776587462,-0.0025814576053098844,1.2265625,-0.26953125,9.69140625
393,486000000,imu1_frame,-0.013163084912363752,-0.062189892540774526,0.013489030599567638,0.9978863645299704,0.007676290520613371,-0.010314839223412538,-0.004534582605309884,1.2265625,-0.26953125,9.69140625
393,511000000,imu1_frame,-0.013158512089404396,-0.06237296064705373,0.013459147671877279,0.997875402384316,-0.0001348473845927626,-0.014078878331178414,-0.002555643029256786,1.2265625,-0.26953125,9.69140625
393,536000000,imu1_frame,-0.013154027769107816,-0.06255244950139925,0.013429589709096284,0.9978646244531719,-0.00013349891074683506,-0.01393808954786663,-0.002530086598964218,1.2265625,-0.26953125,9.69140625
393,561000000,imu1_frame,-0.013078120938483468,-0.06260837581161463,0.013379210557615167,0.9978627915479188,0.005668617328360633,-0.0041307399023879626,-0.004438379482974576,1.2265625,-0.26953125,9.69140625
393,586000000,imu1_frame,-0.013010935673739298,-0.06251777425388232,0.013424391402867341,0.997868743458125,0.005668617328360633,0.0075880100976120374,0.003374120517025424,1.2265625,-0.26953125,9.69140625
393,611000000,imu1_frame,-0.012945053589110434,-0.06242903586927739,0.013469147171847808,0.997874552808353,0.005611931155077027,0.007512129996635917,0.0033403793118551703,1.2265625,-0.26953125,9.69140625
393,636000000,imu1_frame,-0.012881025676083303,-0.062344906242647415,0.013513479230727694,0.9978800417496125,0.0055558118435262566,0.007437008696669557,0.003306975518736618,1.2265625,-0.26953125,9.6484375
393,661000000,imu1_frame,-0.012858758726579093,-0.06245615029805353,0.013484227319773374,0.9978737681829036,0.0016495618435262568,-0.008187991303330443,-0.002552399481263382,1.2265625,-0.26953125,9.6484375
393,686000000,imu1_frame,-0.012813734493241738,-0.06251718840570784,0.013456194345080628,0.9978709035721653,0.0035666599750909943,-0.004238923890297138,-0.0025268754864507478,1.2265625,-0.26953125,9.6484375
393,711000000,imu1_frame,-0.012769071999127078,-0.06257431742943542,0.01342848209287634,0.9978682685942082,0.003530993375340084,-0.004196534651394167,-0.0025016067315862403,1.2265625,-0.26953125,9.69140625
393,736000000,imu1_frame,-0.012703579847358431,-0.06258197754479233,0.01342610407075937,0.9978686561242047,0.005429277191586684,-0.0002873818048802249,-0.000542996914270378,1.2265625,-0.26953125,9.69140625
393,761000000,imu1_frame,-0.012639416518131753,-0.06258953370994685,0.013423792959794519,0.997869028080652,0.0053749844196708165,-0.00028450798683142265,-0.0005375669451276742,1.2265625,-0.26953125,9.69140625
393,786000000,imu1_frame,-0.012605531963984073,-0.06254865533179932,0.013491751078564623,0.9978711033660224,0.0033876408254741083,0.003585524593036892,0.0052685899743236024,1.2265625,-0.26953125,9.69140625
393,811000000,imu1_frame,-0.012521916485736737,-0.062484725229289884,0.01351355626812572,0.9978758662867505,0.007220951917219368,0.005483263097106523,0.0013487165745803664,1.2265625,-0.26953125,9.69140625
393,836000000,imu1_frame,-0.01243999293681872,-0.062422128241836114,0.013535187779080877,0.9978805154793217,0.007148742398047174,0.005428430466135457,0.0013352294088345626,1.2265625,-0.26953125,9.69140625
393,861000000,imu1_frame,-0.012451647928069477,-0.06241048263072372,0.013502926869998998,0.9978815355980984,-0.000657120025933298,0.001506958661474103,-0.002545310385253783,1.2265625,-0.26953125,9.69140625
393,886000000,imu1_frame,-0.01243861632953067,-0.06244656287641045,0.013473115659290881,0.9978798438505314,0.0012830449243260349,-0.002375298425140638,-0.002519857281401245,1.2265625,-0.26953125,9.69140625
393,911000000,imu1_frame,-0.012426484758764601,-0.06248475739187448,0.013443618263205446,0.9978780019111615,0.0012702144750827745,-0.002351545440889232,-0.0024946587085872326,1.2265625,-0.26953125,9.6484375
393,936000000,imu1_frame,-0.012414101533868512,-0.06251950049437599,0.013414433957473942,0.9978763726547699,0.0012575123303319468,-0.0023280299864803394,-0.00246971212150136,1.2265625,-0.26953125,9.69140625
393,961000000,imu1_frame,-0.012330204313222895,-0.06245742526282443,0.013364805543827693,0.9978819659979373,0.007045718457028627,0.005429625313384464,-0.004378608750286346,1.2265625,-0.26953125,9.69140625
393,986000000,imu1_frame,-0.012249114476004491,-0.06225125030488065,0.013313395485387132,0.9978965349828021,0.007045718457028627,0.017148375313384465,-0.004378608750286346,1.2265625,-0.26953125,9.69140625
394,11000000,imu1_frame,-0.012169740747854863,-0.06204925060408449,0.01326252584197085,0.9979107642058446,0.006975261272458341,0.016976891560250618,-0.004334822662783483,1.2265625,-0.26953125,9.69140625
394,36000000,imu1_frame,-0.012097569039340889,-0.061703669510667525,0.013282957494484257,0.9979327978538718,0.006975261272458341,0.028695641560250618,0.001524552337216517,1.2265625,-0.26953125,9.69140625
394,61000000,imu1_frame,-0.012026907980883718,-0.061365096548299865,0.013303181700020983,0.9979542593559554,0.0069055086597337575,0.028408685144648112,0.001509306813844352,1.2265625,-0.26953125,9.69140625
394,86000000,imu1_frame,-0.012023976556857092,-0.061320605653175306,0.013298063814396445,0.9979570976794926,0.0010461336597337575,0.004971185144648113,-0.0004438181861556481,1.2265625,-0.26953125,9.69140625
394,111000000,imu1_frame,-0.012044127606359612,-0.06134912997271111,0.013292381515743813,0.9979551772677133,-0.0008979214268635802,-0.000879307956798368,-0.0004393800042940916,1.2265625,-0.26953125,9.69140625
394,136000000,imu1_frame,-0.01206454573628804,-0.061380031361152644,0.01328675027765797,0.9979531054880987,-0.0008889422125949445,-0.0008705148772303843,-0.00043498620425115077,1.2265625,-0.26953125,9.6484375
394,161000000,imu1_frame,-0.012040439998975928,-0.061361548363409686,0.01333181434618716,0.9979539322600592,0.002987134709531005,0.0030053777715419194,0.0034365511577913606,1.2265625,-0.26953125,9.6484375
394,186000000,imu1_frame,-0.012015112544159028,-0.06136780111528457,0.013352618279253341,0.9979535748930982,0.002957263362435695,0.0010417302438265003,0.001468591896213447,1.2265625,-0.26953125,9.6484375
394,211000000,imu1_frame,-0.011990377019757546,-0.06137412966847415,0.013373234215495727,0.9979532071560163,0.002927690728811338,0.0010313129413882353,0.0014539059772513126,1.2265625,-0.26953125,9.6484375
394,236000000,imu1_frame,-0.011965653709083542,-0.06137775791791187,0.013393664370534759,0.9979530067688629,0.0028984138215232243,0.001020999811974353,0.0014393669174787994,1.2265625,-0.26953125,9.69140625
394,261000000,imu1_frame,-0.011916344784143919,-0.06147668229856169,0.01341657902327058,0.9979471998396806,0.004803023433307992,-0.006723585186145391,0.0014249732483040114,1.2265625,-0.26953125,9.69140625
394,286000000,imu1_frame,-0.011935702241763302,-0.06155172859347881,0.013362164544914764,0.9979430726638796,-0.0010457880510250876,-0.004722755584283937,-0.0043900577341790285,1.2265625,-0.26953125,9.69140625
394,311000000,imu1_frame,-0.011955111766048781,-0.06160562952593088,0.013308571158264957,0.9979402304983503,-0.0010353301705148367,-0.0046755280284410975,-0.004346157156837238,1.1875,-0.26953125,9.69140625
394,336000000,imu1_frame,-0.011929111559003606,-0.06168107615143479,0.013307055282619782,0.9979359014595672,0.0028422106311903114,-0.006562366498156686,-0.0004355080852688662,1.1875,-0.26953125,9.69140625
394,361000000,imu1_frame,-0.011903435057368291,-0.06177475799821375,0.01330531779943848,0.9979304364665671,0.0028137885248784083,-0.006496742833175119,-0.0004311530044161776,1.2265625,-0.26953125,9.69140625
394,386000000,imu1_frame,-0.011856089208261453,-0.06174699258264115,0.013303684764763525,0.9979327402322088,0.004719244389629625,0.0032361933451566316,-0.0004268414743720159,1.2265625,-0.26953125,9.69140625
394,411000000,imu1_frame,-0.011858701860460969,-0.061744145771153426,0.013323492436220122,0.9979326210734256,0.0008048644457333281,0.0012702376617050655,0.0015110206903717043,1.2265625,-0.26953125,9.69140625
394,436000000,imu1_frame,-0.01186136218644499,-0.061741490108023,0.013343104342135467,0.9979324917311982,0.0007968158012759949,0.001257535285088015,0.0014959104834679873,1.2265625,-0.26953125,9.69140625
394,461000000,imu1_frame,-0.011815165101303246,-0.061714786084363836,0.01334112886816468,0.997934717971428,0.004656035143263235,0.0031785536822371346,-0.00045264237136669267,1.2265625,-0.26953125,9.69140625
394,486000000,imu1_frame,-0.011846029680427554,-0.06168886616180017,0.0134070380472966,0.9979350713865509,-0.0011913064581693974,0.0031467681454147634,0.005352665302346974,1.2265625,-0.26953125,9.69140625
394,511000000,imu1_frame,-0.011876353632705498,-0.061663606982335244,0.013472267096136263,0.9979353936090299,-0.0011793933935877036,0.0031153004639606157,0.005299138649323505,1.2265625,-0.26953125,9.69140625
394,536000000,imu1_frame,-0.011906144692393187,-0.06163899795866843,0.013536823035342187,0.997935685338151,-0.0011675994596518264,0.00308414745932101,0.005246147262830269,1.2265625,-0.26953125,9.69140625
394,561000000,imu1_frame,-0.011859955983451752,-0.06142183795945272,0.013506112765561011,0.9979500409257556,0.004691775540348174,0.01870914745932101,-0.0025663527371697307,1.2265625,-0.26953125,9.69140625
394,586000000,imu1_frame,-0.011816269621024644,-0.06120887684265152,0.013499830748324242,0.9979637286683676,0.004644857784944691,0.0185220559847278,-0.0006070954597980334,1.2265625,-0.26953125,9.69140625
394,611000000,imu1_frame,-0.011773570877525473,-0.061000336031912065,0.013493612341183852,0.9979770861391416,0.004598409207095245,0.018336835424880522,-0.0006010245052000531,1.2265625,-0.26953125,9.69140625
394,636000000,imu1_frame,-0.011701149056084159,-0.06113152901247032,0.013468605815697133,0.9979702480178185,0.006551534207095245,-0.009006914575119478,-0.002554149505200053,1.2265625,-0.26953125,9.69140625
394,661000000,imu1_frame,-0.011630609462319199,-0.06124050449739328,0.013444186682895879,0.9979647205071306,0.006486018865024292,-0.008916845429368284,-0.0025286080101480524,1.1875,-0.26953125,9.69140625
394,686000000,imu1_frame,-0.011587275422674525,-0.06132345977634922,0.013442419278598504,0.9979601543615236,0.00448756492637405,-0.006894083225074601,-0.0005697281800465721,1.1875,-0.26953125,9.69140625
