timestamp_sec,timestamp_nsec,frame_id,orientation_x,orientation_y,orientation_z,orientation_w,angular_velocity_x,angular_velocity_y,angular_velocity_z,linear_acceleration_x,linear_acceleration_y,linear_acceleration_z
358,264000000,imu1_frame,-0.0029942566199384255,-0.0261954290868509,0.0016099837602101153,0.9996510600577292,-0.004163596007762035,8.708713023648955e-05,0.0018247120769274811,0.53515625,-0.078125,9.69140625
358,289000000,imu1_frame,-0.0030319777425764907,-0.0262565399465839,0.0016324141453611229,0.9996493067296451,-0.002210471007762035,-0.0038191628697635104,0.0018247120769274811,0.53515625,-0.078125,9.69140625
358,313000000,imu1_frame,-0.0029981646772777215,-0.02622232730615278,0.001632096460176256,0.9996503072676775,0.003648903992237965,0.00399333713023649,-0.0001284129230725189,0.53515625,-0.078125,9.69140625
358,338000000,imu1_frame,-0.0030595329095769977,-0.02618663552460561,0.0016291772751734056,0.9996510617008731,-0.004163596007762035,0.00399333713023649,-0.0001284129230725189,0.53515625,-0.078125,9.69140625
358,363000000,imu1_frame,-0.0031196515022224435,-0.02613068024164978,0.0016263333404202868,0.9996523447501533,-0.004121960047684415,0.003953403758934125,-0.0001271287938417937,0.49609375,-0.078125,9.73046875
358,389000000,imu1_frame,-0.0031612184314856874,-0.02609441580512695,0.0016227583146109707,0.999653167262161,-0.004121960047684415,0.003953403758934125,-0.0001271287938417937,0.53515625,-0.0390625,9.69140625
358,414000000,imu1_frame,-0.00310496928914169,-0.026035996276121964,0.0016706030651618543,0.9996547879888447,0.0036905399523155854,0.005906528758934125,0.0037791212061582063,0.53515625,-0.0390625,9.69140625
358,438000000,imu1_frame,-0.003050445225410878,-0.025981165403457268,0.0016931060573888044,0.9996563445605112,0.0036905399523155854,0.005906528758934125,0.0018259962061582063,0.53515625,-0.0390625,9.69140625
358,464000000,imu1_frame,-0.003013018754011412,-0.02590096852918874,0.0017181116965164704,0.9996584965074004,0.0036905399523155854,0.005906528758934125,0.0018259962061582063,0.49609375,-0.078125,9.69140625
358,488000000,imu1_frame,-0.002979555930663984,-0.02582743130398991,0.001741218743128862,0.9996604594541,0.0036905399523155854,0.005906528758934125,0.0018259962061582063,0.49609375,-0.078125,9.69140625
358,514000000,imu1_frame,-0.0029421390559239416,-0.02577397493700214,0.0017409291833625465,0.9996619504609051,0.0036905399523155854,0.003953403758934125,-0.0001271287938417937,0.49609375,-0.078125,9.69140625
358,538000000,imu1_frame,-0.0029319406669175586,-0.025725011940288187,0.0017400791493935963,0.9996632431019716,0.0017374149523155854,0.003953403758934125,-0.0001271287938417937,0.49609375,-0.078125,9.69140625
358,563000000,imu1_frame,-0.002920986534103417,-0.02567458089275631,0.0017391823691532452,0.9996645732336101,0.0017374149523155854,0.003953403758934125,-0.0001271287938417937,0.49609375,-0.078125,9.69140625
358,589000000,imu1_frame,-0.0029099668700357053,-0.025597495709494388,0.0017635455051461335,0.999666539508785,0.0017374149523155854,0.005906528758934125,0.0018259962061582063,0.49609375,-0.078125,9.69140625
358,613000000,imu1_frame,-0.002854993010451208,-0.025480496367978608,0.0018105573909799387,0.9996696030197606,0.005643664952315585,0.009812778758934125,0.0037791212061582063,0.49609375,-0.078125,9.69140625
358,638000000,imu1_frame,-0.002820719124098007,-0.02538414369367942,0.0018101553668921778,0.999672152323005,0.0036905399523155854,0.007859653758934125,-0.0001271287938417937,0.49609375,-0.078125,9.69140625
358,663000000,imu1_frame,-0.0027666684448431943,-0.02528872080384909,0.0018092484410696097,0.9996747234805428,0.0036905399523155854,0.007859653758934125,-0.0001271287938417937,0.49609375,-0.0390625,9.69140625
358,688000000,imu1_frame,-0.0027135344851750547,-0.025194200353023336,0.0018083620096226746,0.999677257331591,0.0036536345527924297,0.007781057221344784,-0.00012585750590337578,0.49609375,-0.0390625,9.73046875
358,714000000,imu1_frame,-0.0027340506564169733,-0.025197417606594504,0.001805823874604693,0.9996771249323959,-0.002183683042735495,-3.1128350868664436e-05,-0.00012459893084434202,0.49609375,-0.0390625,9.73046875
358,739000000,imu1_frame,-0.0027052585172412224,-0.025152653289891462,0.00180449022228682,0.9996783329770988,0.0017053412876918601,0.0038363704326400223,-0.0001233529415358986,0.49609375,-0.0390625,9.73046875
358,764000000,imu1_frame,-0.002696952917659385,-0.025109394556010713,0.0018036676860879051,0.9996794443884844,0.0017053412876918601,0.0038363704326400223,-0.0001233529415358986,0.49609375,-0.078125,9.69140625
358,788000000,imu1_frame,-0.002689572552605346,-0.025068468093734603,0.001802890292240464,0.9996804928043319,0.0017053412876918601,0.0038363704326400223,-0.0001233529415358986,0.49609375,-0.078125,9.69140625
358,813000000,imu1_frame,-0.0026820674951871567,-0.02500182479057653,0.0018264066246623909,0.9996821392372347,0.0017053412876918601,0.005789495432640022,0.0018297720584641013,0.49609375,-0.078125,9.69140625
358,838000000,imu1_frame,-0.0026738568419105778,-0.0250325613087167,0.001825781113907511,0.999681393188469,0.0017053412876918601,-0.0020230045673599777,-0.0001233529415358986,0.49609375,-0.078125,9.69140625
358,864000000,imu1_frame,-0.0026447614950355787,-0.025063956236592713,0.0018246178991885391,0.9996806860712707,0.0017053412876918601,-0.0020230045673599777,-0.0001233529415358986,0.49609375,-0.0390625,9.69140625
358,888000000,imu1_frame,-0.0026415503346533136,-0.02502343203226269,0.0018461863183132968,0.9996816701616742,-0.00024778371230813984,0.0038363704326400223,0.0018297720584641013,0.49609375,-0.0390625,9.69140625
358,913000000,imu1_frame,-0.0026618997887888096,-0.02507816990884746,0.0018438980773297128,0.9996802487412753,-0.0022009087123081397,-0.003976129567359978,-0.0001233529415358986,0.49609375,-0.0390625,9.69140625
358,939000000,imu1_frame,-0.0026837542941969637,-0.025134263550874534,0.0018669032321023855,0.9996787388611231,-0.0022009087123081397,-0.003976129567359978,0.0018297720584641013,0.49609375,-0.0390625,9.69140625
358,964000000,imu1_frame,-0.0027042766201108865,-0.02518782958969382,0.0018890112507614271,0.999677293812867,-0.0022009087123081397,-0.003976129567359978,0.0018297720584641013,0.49609375,-0.0390625,9.69140625
358,988000000,imu1_frame,-0.0026760630888473204,-0.025169343351644627,0.0018643642694174943,0.9996778816136037,0.0017053412876918601,0.0018832454326400223,-0.0020764779415358985,0.49609375,-0.0390625,9.69140625
359,13000000,imu1_frame,-0.0026238899599145085,-0.02505335256921781,0.001863469024357726,0.999680935203686,0.0036584662876918603,0.009695745432640021,-0.0001233529415358986,0.49609375,-0.0390625,9.69140625
359,38000000,imu1_frame,-0.002548075912086566,-0.024938476248080862,0.0018632036864550062,0.9996840041651127,0.00561159128769186,0.009695745432640021,-0.0001233529415358986,0.49609375,-0.0390625,9.69140625
359,64000000,imu1_frame,-0.0024909305885833883,-0.02482020417424284,0.001863451860674618,0.9996870911823934,0.005555475374814942,0.009598787978313622,-0.0001221194121205396,0.49609375,-0.078125,9.73046875
359,89000000,imu1_frame,-0.0024377836051897176,-0.024709058050573704,0.001863712855422082,0.9996899750601385,0.005499920621066792,0.009502800098530486,-0.00012089821799933422,0.49609375,-0.078125,9.73046875
359,114000000,imu1_frame,-0.0024813076763198095,-0.024719982280261902,0.0018618685513942031,0.9996896013432252,-0.002289453585143876,-0.00026019665245481904,-0.00011968923581934087,0.49609375,-0.078125,9.73046875
359,138000000,imu1_frame,-0.0025229944720011337,-0.024730634695238066,0.001860122670632115,0.9996892367881707,-0.002266559049292437,-0.00025759468593027085,-0.00011849234346114747,0.49609375,-0.078125,9.73046875
359,164000000,imu1_frame,-0.0025662137781537844,-0.024741406146768632,0.0018582147044881212,0.9996888638005513,-0.0022438934587995125,-0.00025501873907096814,-0.00011730742002653599,0.49609375,-0.078125,9.73046875
359,189000000,imu1_frame,-0.0026076157003362016,-0.024751909255881326,0.0018564039400025534,0.9996885000303644,-0.0022214545242115174,-0.00025246855168025844,-0.00011613434582627064,0.49609375,-0.078125,9.73046875
359,214000000,imu1_frame,-0.0025761583705774783,-0.024666520567285685,0.001831999365871158,0.9996907371529842,0.0036015412710305975,0.007484431133836544,-0.002048566752368008,0.49609375,-0.078125,9.73046875
359,238000000,imu1_frame,-0.002526895240708391,-0.02456859237872373,0.0018081417408083906,0.999693317819228,0.0036015412710305975,0.007484431133836544,-0.002048566752368008,0.4609375,-0.0390625,9.69140625
359,264000000,imu1_frame,-0.0024946534448152943,-0.024464267447801898,0.0017828088869254529,0.9996960027502888,0.0036015412710305975,0.007484431133836544,-0.002048566752368008,0.4609375,-0.078125,9.69140625
359,289000000,imu1_frame,-0.002489202497976888,-0.02441299818459518,0.001782393878117405,0.9996972704087105,0.0016484162710305977,0.003578181133836544,-9.544175236800794e-05,0.4609375,-0.078125,9.69140625
359,314000000,imu1_frame,-0.0024353510680831508,-0.024434643292388054,0.001783366206569788,0.9996968724955192,0.005554666271030598,-0.002281193866163456,-9.544175236800794e-05,0.4609375,-0.078125,9.69140625
359,338000000,imu1_frame,-0.0023646659531718914,-0.02445491417228977,0.0017838362823663382,0.9996965456856763,0.005554666271030598,-0.002281193866163456,-9.544175236800794e-05,0.4609375,-0.0390625,9.69140625
359,363000000,imu1_frame,-0.0022925105764422327,-0.02449288874930301,0.0017842979733570174,0.9996957832644457,0.005499119608320292,-0.0022583819275018213,-9.448733484432786e-05,0.49609375,-0.0390625,9.73046875
359,389000000,imu1_frame,-0.002218430596436867,-0.024532620899344583,0.001784802403827695,0.9996949752588922,0.005499119608320292,-0.0022583819275018213,-9.448733484432786e-05,0.49609375,-0.0390625,9.69140625
359,413000000,imu1_frame,-0.0021970565941571716,-0.02450022470059669,0.001783960961324159,0.999695818444406,0.0015928696083202917,0.0036009930724981787,-9.448733484432786e-05,0.49609375,-0.0390625,9.69140625
359,438000000,imu1_frame,-0.002175144077214839,-0.024448281083036948,0.0017831341455641898,0.9996971395042336,0.0015928696083202917,0.0036009930724981787,-9.448733484432786e-05,0.4609375,-0.0390625,9.69140625
359,463000000,imu1_frame,-0.0021534169178064676,-0.024414944920755882,0.0017822708325232032,0.999698002784228,0.0015928696083202917,0.0036009930724981787,-9.448733484432786e-05,0.49609375,-0.0390625,9.69140625
359,488000000,imu1_frame,-0.0021319071098132966,-0.02438194207431049,0.0017814127223397334,0.999698855876845,0.0015928696083202917,0.0036009930724981787,-9.448733484432786e-05,0.49609375,-0.0390625,9.69140625
359,514000000,imu1_frame,-0.0020853032066357247,-0.02434738807729962,0.001806536487105288,0.9996997512404765,0.0035459946083202915,0.0036009930724981787,0.001858637665155672,0.49609375,-0.0390625,9.69140625
359,538000000,imu1_frame,-0.002042617686816099,-0.024316754132030428,0.0018297342024359542,0.9997005427897978,0.0035459946083202915,0.0036009930724981787,0.001858637665155672,0.49609375,-0.0390625,9.69140625
359,564000000,imu1_frame,-0.001996894378250371,-0.024282852877233963,0.0018548803793587859,0.9997014128667435,0.0035459946083202915,0.0036009930724981787,0.001858637665155672,0.49609375,-0.0390625,9.69140625
359,588000000,imu1_frame,-0.001977119147527162,-0.02427619612882936,0.001830711959560346,0.9997016583936992,0.0015928696083202917,0.0016478680724981787,-0.002047612334844328,0.49609375,-0.0390625,9.69140625
359,613000000,imu1_frame,-0.001982596612476438,-0.024292855542247603,0.0018782125353523688,0.9997011547447306,-0.00036025539167970833,-0.0003052569275018213,0.003811762665155672,0.49609375,-0.0390625,9.69140625
359,638000000,imu1_frame,-0.0020081278307259526,-0.024309385717650987,0.001926200496470212,0.9997006106531562,-0.00036025539167970833,-0.0003052569275018213,0.003811762665155672,0.49609375,-0.078125,9.69140625
359,663000000,imu1_frame,-0.0020082529487775863,-0.024229149283398078,0.0019257690386543,0.9997025590938069,0.0015928696083202917,0.007507243072498179,-9.448733484432786e-05,0.49609375,-0.078125,9.69140625
359,688000000,imu1_frame,-0.002008417170706173,-0.024131627225667994,0.0019253705028390057,0.9997049183515787,0.0015928696083202917,0.007507243072498179,-9.448733484432786e-05,0.4609375,-0.078125,9.69140625
359,714000000,imu1_frame,-0.002033285755036363,-0.02415700922553442,0.0019499547762582819,0.9997042074187177,-0.00036025539167970833,-0.0022583819275018213,0.001858637665155672,0.4609375,-0.078125,9.69140625
359,738000000,imu1_frame,-0.0021259380093896123,-0.024203329935966945,0.0019241534380609222,0.9997029442995242,-0.006219630391679708,-0.004211506927501821,-0.002047612334844328,0.4609375,-0.078125,9.69140625
359,764000000,imu1_frame,-0.0022237694873840502,-0.024253370780212714,0.001896143487967479,0.9997015722178982,-0.006219630391679708,-0.004211506927501821,-0.002047612334844328,0.4609375,-0.078125,9.69140625
359,789000000,imu1_frame,-0.0023175414931053285,-0.02431890585330471,0.001869165305072041,0.9996998179656672,-0.006219630391679708,-0.004211506927501821,-0.002047612334844328,0.49609375,-0.078125,9.69140625
359,813000000,imu1_frame,-0.0023155337912579756,-0.024451001905387213,0.0018925907529941538,0.9996965564156586,0.0015928696083202917,-0.010070881927501822,0.001858637665155672,0.49609375,-0.078125,9.69140625
359,838000000,imu1_frame,-0.002292644883555529,-0.024586721079551434,0.0019164901860781313,0.9996932349432804,0.0015928696083202917,-0.010070881927501822,0.001858637665155672,0.49609375,-0.0390625,9.69140625
359,864000000,imu1_frame,-0.0022693262353593886,-0.024723743685461378,0.0019411089513360963,0.9996898612833144,0.0015769409122370888,-0.009970173108226803,0.0018400512885041154,0.49609375,-0.0390625,9.73046875
359,888000000,imu1_frame,-0.0021790372096257412,-0.02440867706170659,0.00196457075677696,0.9996977586964362,0.007436315912237089,0.0271392018917732,0.0018400512885041154,0.49609375,-0.0390625,9.73046875
359,914000000,imu1_frame,-0.002157177170696287,-0.024371579777164185,0.001988805386462766,0.9996986632675641,0.0015769409122370888,0.003701701891773197,0.0018400512885041154,0.49609375,-0.0390625,9.73046875
359,939000000,imu1_frame,-0.0021363630674478364,-0.024337713872795468,0.002012109542733495,0.9996994863715185,0.0015769409122370888,0.003701701891773197,0.0018400512885041154,0.49609375,-0.0390625,9.69140625
359,963000000,imu1_frame,-0.0021628055283775317,-0.024352508019808365,0.0020334316739813126,0.9996990260978645,-0.0023293090877629114,-0.00020454810822680304,0.0018400512885041154,0.49609375,-0.0390625,9.69140625
359,989000000,imu1_frame,-0.002191067975016612,-0.02430823449239729,0.002056431444995011,0.9996999950218584,-0.002306015996885282,-0.000202502627144535,0.0018216507756190744,0.3828125,-0.0390625,9.73046875
360,13000000,imu1_frame,-0.0022391660401538467,-0.02437904696766985,0.0020771372660899645,0.9996981212872066,-0.0042165495869164295,-0.00986844635087309,0.0018034342678628836,0.3828125,-0.0390625,9.73046875
360,38000000,imu1_frame,-0.002288828001034695,-0.024513134047945372,0.0020985581192194042,0.9996946851811053,-0.0042165495869164295,-0.00986844635087309,0.0018034342678628836,0.49609375,-0.0390625,9.69140625
360,64000000,imu1_frame,-0.0023624076351594606,-0.024645624041048423,0.0021213908287339442,0.9996912082972145,-0.0042165495869164295,-0.00986844635087309,0.0018034342678628836,0.4609375,-0.078125,9.19140625
360,88000000,imu1_frame,-0.0024282936052918403,-0.024732049815988748,0.0021423120309728046,0.9996888714001112,-0.004174384091047265,-0.00976976188736436,0.0017853999251842547,0.421875,-0.078125,9.7265625
360,114000000,imu1_frame,-0.0024965730116878635,-0.024801209486488635,0.0021395181578442645,0.9996869958108172,-0.004132640250136792,-0.0077384705184907155,-0.00016604782406758785,0.421875,-0.078125,9.7265625
360,138000000,imu1_frame,-0.0025394661331016506,-0.024899001483344802,0.002136395058978508,0.9996844635448944,-0.004091313847635425,-0.007661085813305808,-0.00016438734582691197,0.49609375,-0.0390625,9.73046875
360,163000000,imu1_frame,-0.002606168458959317,-0.024994435111273104,0.002133707540831463,0.9996819161070997,-0.004091313847635425,-0.007661085813305808,-0.00016438734582691197,0.4609375,-0.078125,9.23046875
360,188000000,imu1_frame,-0.0025520113119573834,-0.02479870913172554,0.0021333143453833472,0.999686931110719,0.005674311152364575,0.01577641418669419,-0.00016438734582691197,0.4609375,-0.078125,9.23046875
360,213000000,imu1_frame,-0.0024762512853070745,-0.024611139665136346,0.0021323626306394335,0.9996917590005265,0.005674311152364575,0.01577641418669419,-0.00016438734582691197,0.49609375,-0.0390625,9.69140625
360,238000000,imu1_frame,-0.0024012485647393602,-0.024425444917764577,0.00213142814509805,0.999696498273332,0.005674311152364575,0.01577641418669419,-0.00016438734582691197,0.49609375,-0.0390625,9.69140625
360,263000000,imu1_frame,-0.0022546614680641185,-0.024168963347319664,0.002132140956837551,0.9997030717604706,0.011533686152364575,0.02163578918669419,-0.00016438734582691197,0.49609375,-0.0390625,9.69140625
360,289000000,imu1_frame,-0.0020837681130087614,-0.023886196801996454,0.0021324820949883815,0.999710238035453,0.011533686152364575,0.02163578918669419,-0.00016438734582691197,0.4609375,0.0,9.69140625
360,313000000,imu1_frame,-0.0020184948916407296,-0.023743873579983733,0.0021307834247542446,0.999713765988939,0.0037211861523645754,0.011870164186694192,-0.00016438734582691197,0.4609375,0.0,9.69140625
360,339000000,imu1_frame,-0.001970389828839352,-0.023571240305529966,0.002129520526559166,0.9997179498922225,0.0037211861523645754,0.011870164186694192,-0.00016438734582691197,0.421875,-0.0390625,9.6875
360,363000000,imu1_frame,-0.0019062911478354072,-0.02341204714759417,0.002127891389208503,0.9997218183978253,0.0037211861523645754,0.011870164186694192,-0.00016438734582691197,0.421875,0.0,9.6875
360,388000000,imu1_frame,-0.001861086433908484,-0.023268626680105344,0.0021266576340803803,0.9997252546059917,0.0037211861523645754,0.011870164186694192,-0.00016438734582691197,0.4609375,-0.0390625,9.69140625
360,413000000,imu1_frame,-0.0019371425399799134,-0.023392648398716187,0.002147474812515718,0.9997221713214144,-0.006044438847635425,-0.009614210813305808,0.001788737654173088,0.4609375,-0.0390625,9.69140625
360,439000000,imu1_frame,-0.002015488419187382,-0.023500174187081176,0.0021691507509668377,0.9997194478475592,-0.006044438847635425,-0.009614210813305808,0.001788737654173088,0.421875,-0.0390625,9.6875
360,464000000,imu1_frame,-0.0020699081583209476,-0.02360182003384713,0.0021895052009447097,0.9997168977456974,-0.006044438847635425,-0.009614210813305808,0.001788737654173088,0.421875,0.0,9.6875
360,489000000,imu1_frame,-0.0020267195497911616,-0.023629798749784724,0.002187614080714941,0.9997163294472814,0.0017680611523645756,-0.003754835813305808,-0.00016438734582691197,0.421875,0.0,9.6875
360,513000000,imu1_frame,-0.002004926618721945,-0.02367570143755344,0.0021862224572764986,0.9997152904012525,0.0017680611523645756,-0.003754835813305808,-0.00016438734582691197,0.4609375,-0.0390625,9.69140625
360,539000000,imu1_frame,-0.001981643708236768,-0.023704839839640883,0.0021847644780703286,0.9997146495178342,0.0017680611523645756,-0.003754835813305808,-0.00016438734582691197,0.421875,-0.0390625,9.6875
360,563000000,imu1_frame,-0.0019374125158355307,-0.02361394077497798,0.002183752241997116,0.9997168896542484,0.0037211861523645754,0.006010789186694192,-0.00016438734582691197,0.421875,-0.0390625,9.6875
360,589000000,imu1_frame,-0.001889896127850917,-0.023538011712092598,0.0021826193693782778,0.9997187736908594,0.0037211861523645754,0.006010789186694192,-0.00016438734582691197,0.4609375,-0.0390625,9.69140625
360,614000000,imu1_frame,-0.0017964705550411787,-0.023417388225778026,0.0021826075733480505,0.9997217787196641,0.007627436152364575,0.009917039186694192,-0.00016438734582691197,0.4609375,-0.0390625,9.69140625
360,639000000,imu1_frame,-0.0017040707534568013,-0.023257752054756022,0.002182688252080135,0.9997256668627754,0.007627436152364575,0.009917039186694192,-0.00016438734582691197,0.3828125,-0.0390625,9.69140625
360,663000000,imu1_frame,-0.0015970491254408388,-0.023145030942232275,0.0021822486167546893,0.999728460517029,0.00755116179084093,0.00981786879482725,-0.00016274347236864284,0.4609375,0.0,9.73046875
360,688000000,imu1_frame,-0.001507546016415713,-0.02300954637789373,0.002182329901686914,0.999731726773084,0.00755116179084093,0.00981786879482725,-0.00016274347236864284,0.421875,-0.0390625,9.6875
360,713000000,imu1_frame,-0.001396139310682507,-0.022754473630487236,0.0022316211152082995,0.9997376178738214,0.00950428679084093,0.01958349379482725,0.003743506527631357,0.421875,-0.0390625,9.6875
360,738000000,imu1_frame,-0.0012657880595367162,-0.02246158527361753,0.002280530836772528,0.9997443043832193,0.00950428679084093,0.01958349379482725,0.003743506527631357,0.34375,0.0,9.69140625
360,764000000,imu1_frame,-0.0011319964073053647,-0.022202240328491815,0.0023313770395399533,0.9997501406799748,0.00950428679084093,0.01958349379482725,0.003743506527631357,0.421875,0.0,9.6875
360,789000000,imu1_frame,-0.0011479478955570262,-0.02224552497584234,0.0023529277164431994,0.9997491098097261,-0.00221446320915907,-0.00385400620517275,0.0017903815276313572,0.421875,0.0,9.6875
360,814000000,imu1_frame,-0.001183914491891652,-0.02226822293624751,0.002374949071882643,0.9997485104818329,-0.00221446320915907,-0.00385400620517275,0.0017903815276313572,0.3828125,-0.0390625,9.69140625
360,838000000,imu1_frame,-0.001198273394689822,-0.022288737965820152,0.0023956431535146153,0.9997479868420059,-0.00221446320915907,-0.00385400620517275,0.0017903815276313572,0.3828125,0.0,9.69140625
360,863000000,imu1_frame,-0.0011415082983565145,-0.022141636082614255,0.002418648819570001,0.9997512665899841,0.00364491179084093,0.00981786879482725,0.0017903815276313572,0.3828125,0.0,9.69140625
360,889000000,imu1_frame,-0.001103665327197088,-0.0219911892690883,0.002443039172378093,0.9997545704206502,0.00364491179084093,0.00981786879482725,0.0017903815276313572,0.3828125,-0.0390625,9.69140625
360,914000000,imu1_frame,-0.0010196986300185355,-0.021822828497323865,0.0024675577033636347,0.9997582885528187,0.00755116179084093,0.01177099379482725,0.0017903815276313572,0.3828125,-0.0390625,9.69140625
360,939000000,imu1_frame,-0.0009163838589058002,-0.021676302577282675,0.002491628583300867,0.9997615165299193,0.00755116179084093,0.01177099379482725,0.0017903815276313572,0.421875,0.0,9.6875
360,963000000,imu1_frame,-0.0008387475174717164,-0.021537654423214106,0.0025149504716298525,0.9997645227595714,0.00747565017293252,0.011653283856878978,0.0017724777123550436,0.421875,-0.0390625,9.7265625
360,989000000,imu1_frame,-0.0007354964634343996,-0.02137016987290304,0.002539547376485092,0.9997681359113613,0.007400893671203195,0.011536751018310188,0.0017547529352314932,0.3828125,0.0,9.73046875
361,14000000,imu1_frame,-0.0006860401791443093,-0.021259458174519887,0.002586130215756934,0.9997704120034289,0.0034596972344911633,0.007554196008127086,0.0036707991558791783,0.3828125,0.0,9.73046875
361,38000000,imu1_frame,-0.000658815431304856,-0.0211746429793986,0.0026312635120715544,0.9997721124882673,0.0034596972344911633,0.007554196008127086,0.0036707991558791783,0.421875,-0.0390625,9.6875
361,63000000,imu1_frame,-0.0006301890424602944,-0.02108693187441484,0.0026782692350677977,0.9997738599502385,0.0034596972344911633,0.007554196008127086,0.0036707991558791783,0.421875,-0.0390625,9.6875
361,88000000,imu1_frame,-0.0005533936736641892,-0.020854996018378768,0.002701814714341118,0.9997787070616001,0.007365947234491164,0.019272946008127085,0.0017176741558791783,0.421875,-0.0390625,9.6875
361,114000000,imu1_frame,-0.00045373046686783466,-0.020575453486625147,0.002725908154201278,0.9997844839100166,0.007365947234491164,0.019272946008127085,0.0017176741558791783,0.34375,0.0,9.69140625
361,139000000,imu1_frame,-0.00035855037128750797,-0.020348575528888056,0.0027490676522317053,0.9997891025324391,0.007365947234491164,0.019272946008127085,0.0017176741558791783,0.421875,0.0,9.6875
361,163000000,imu1_frame,-0.0001298126526799395,-0.019738757386085905,0.0027740674702451235,0.999801314839703,0.019084697234491164,0.05247607100812709,0.0017176741558791783,0.421875,0.0,9.6875
361,188000000,imu1_frame,0.00010583102665399537,-0.019048645148719057,0.002800167278608015,0.9998146313097261,0.019084697234491164,0.05247607100812709,0.0017176741558791783,0.3046875,0.0,9.6875
361,214000000,imu1_frame,2.42252313200147e-05,-0.01921996837596295,0.002820906584576589,0.9998112995534739,-0.006305927765508836,-0.015883303991872915,0.0017176741558791783,0.3046875,0.0,9.6875
361,238000000,imu1_frame,-3.0083481322245417e-05,-0.01941396580076022,0.0028396436575538696,0.9998074981969125,-0.006305927765508836,-0.015883303991872915,0.0017176741558791783,0.3828125,0.0390625,9.69140625
361,263000000,imu1_frame,-0.00012835434307138335,-0.01960352200106525,0.002859972230496851,0.999803733744357,-0.006305927765508836,-0.015883303991872915,0.0017176741558791783,0.34375,-0.0390625,9.19140625
361,288000000,imu1_frame,-0.00020447120316793483,-0.01976927131450899,0.002879877436385984,0.9998004002845627,-0.006305927765508836,-0.015883303991872915,0.0017176741558791783,0.3046875,0.0,9.2265625
361,314000000,imu1_frame,-0.00018369966629545564,-0.01966448875558126,0.002927922211094832,0.9998023311674863,0.0015065722344911633,0.005601071008127086,0.0036707991558791783,0.3046875,0.0,9.2265625
361,339000000,imu1_frame,-0.00014365569150160263,-0.019575685490016894,0.002973722310776152,0.99980394521939,0.0015065722344911633,0.005601071008127086,0.0036707991558791783,0.34375,0.0390625,9.69140625
361,363000000,imu1_frame,-0.00016709539301752727,-0.01949957541876735,0.003018898447293724,0.9998052934895786,0.0015065722344911633,0.005601071008127086,0.0036707991558791783,0.34375,-0.078125,9.23046875
361,388000000,imu1_frame,-0.0001407635577967015,-0.0192763203191372,0.0030180253319646035,0.9998096294713662,0.005412822234491164,0.017319821008127085,-0.00023545084412082177,0.34375,-0.078125,9.23046875
361,413000000,imu1_frame,-0.0002829053710130203,-0.019369956543876025,0.003013870496357256,0.9998078021963375,-0.008259052765508836,-0.008070803991872913,-0.00023545084412082177,0.34375,-0.078125,9.23046875
361,613000000,imu1_frame,0.0007820114100156031,-0.016484743089481373,0.0032074422637587484,0.9998586670212711,0.011272197234491164,0.029038571008127085,0.0017176741558791783,0.34375,-0.078125,9.23046875
361,638000000,imu1_frame,0.0009327005465864241,-0.016079023991846388,0.003231297055909753,0.999865067784897,0.011272197234491164,0.029038571008127085,0.0017176741558791783,0.23046875,0.0390625,9.6875
361,664000000,imu1_frame,0.0010873418439530092,-0.015642820570792478,0.0032561195991866604,0.9998717505447687,0.011272197234491164,0.029038571008127085,0.0017176741558791783,0.19140625,0.0390625,9.6875
361,689000000,imu1_frame,0.0010667157257963382,-0.0156367794647775,0.003301258669949174,0.9998717192403855,-0.0023996777655088367,-0.004164553991872914,0.0036707991558791783,0.19140625,0.0390625,9.6875
361,713000000,imu1_frame,0.001001931653934715,-0.01576806095716408,0.003320258183913119,0.9998696616420584,-0.006305927765508836,-0.015883303991872915,0.0017176741558791783,0.19140625,0.0390625,9.6875
361,738000000,imu1_frame,0.0009146026863035408,-0.015926117726152343,0.0033403900752058168,0.9998671732136446,-0.006305927765508836,-0.015883303991872915,0.0017176741558791783,0.23046875,0.0,9.6875
361,763000000,imu1_frame,0.0008766234962371677,-0.016009909729947595,0.0033369561155947376,0.9998658805287673,-0.0023996777655088367,-0.010023928991872913,-0.00023545084412082177,0.23046875,0.0,9.6875
361,788000000,imu1_frame,0.0008593003254951746,-0.016131067818034254,0.0033332229575682073,0.9998639606860104,-0.0023996777655088367,-0.010023928991872913,-0.00023545084412082177,0.3046875,0.0390625,9.6875
361,814000000,imu1_frame,0.0008656111615627805,-0.016105095665490357,0.0033298890221572564,0.9998643850293012,-0.0004465527655088366,0.0016948210081270858,-0.00023545084412082177,0.3046875,0.0390625,9.6875
361,839000000,imu1_frame,0.0008518037171100054,-0.016042017180576035,0.003326972895666352,0.9998654206274747,-0.0004465527655088366,0.0016948210081270858,-0.00023545084412082177,0.23046875,0.0,9.6875
361,863000000,imu1_frame,0.0008585655497635814,-0.016000429345962942,0.0033238677585932194,0.9998660915487959,-0.0004465527655088366,0.0016948210081270858,-0.00023545084412082177,0.26953125,0.0390625,9.69140625
361,889000000,imu1_frame,0.000864882098993212,-0.015975763660554868,0.0033205370963964053,0.9998664915816554,-0.0004465527655088366,0.0016948210081270858,-0.00023545084412082177,0.3046875,0.0390625,9.6875
361,913000000,imu1_frame,0.0009411793222144911,-0.015952789793639035,0.003318583671668096,0.999866795969192,0.005412822234491164,0.0016948210081270858,-0.00023545084412082177,0.3046875,0.0390625,9.6875
361,938000000,imu1_frame,0.0010192680553771291,-0.0158909261394974,0.0033165348385388346,0.9998677113277162,0.005412822234491164,0.0016948210081270858,-0.00023545084412082177,0.23046875,0.0390625,9.6875
361,963000000,imu1_frame,0.0010958802747198858,-0.01584942443999115,0.0033145329645223563,0.9998682956582691,0.005358694012146252,0.0016778727980458152,-0.00023309633567961355,0.26953125,0.0390625,9.73046875
361,988000000,imu1_frame,0.0011235096580012088,-0.01578475535386724,0.003287647011651271,0.9998693767695828,0.0014379195720247893,0.003594687820065357,-0.0021643591223228175,0.26953125,0.0390625,9.73046875
362,13000000,imu1_frame,0.001149988933303966,-0.015625504661272806,0.0032853105469084726,0.9998718557215941,0.0014235403763045414,0.011293115941864704,-0.00020912178109958924,0.26953125,0.0390625,9.73046875
362,38000000,imu1_frame,0.0011520498060588853,-0.015565050487684976,0.0033066761839599603,0.9998727258392314,-0.000524288777458504,0.003445809782446056,0.0017265631867114067,0.26953125,0.0390625,9.73046875
362,63000000,imu1_frame,0.0011541629996175832,-0.015505626451523369,0.0033278285076896175,0.9998735765153212,-0.000519045889683919,0.0034113516846215955,0.0017092975548442925,0.26953125,0.0390625,9.73046875
362,88000000,imu1_frame,0.0012523164820162451,-0.015422947002833655,0.003326143686162507,0.9998747427439878,0.00722051956921292,0.00531083191777538,-0.00024138917070415033,0.26953125,0.0390625,9.73046875
362,113000000,imu1_frame,0.001276328042804016,-0.015413827778127064,0.0033716014712887542,0.9998747007517853,0.001347533123520791,-0.000543057651402374,0.0036282122210028914,0.26953125,0.0390625,9.73046875
362,139000000,imu1_frame,0.0013008296859674,-0.015405625357650164,0.0034188857686398653,0.9998746350265961,0.001347533123520791,-0.000543057651402374,0.0036282122210028914,0.26953125,0.0390625,9.69140625
362,163000000,imu1_frame,0.0013010459533480045,-0.015420216580576135,0.0034386955145747655,0.9998743418916167,-0.000605591876479209,-0.002496182651402374,0.0016750872210028911,0.26953125,0.0390625,9.69140625
362,188000000,imu1_frame,0.0013008951827299525,-0.015415810073022406,0.0034593119293481072,0.9998743389208925,-0.000605591876479209,-0.002496182651402374,0.0016750872210028911,0.23046875,0.0390625,9.6875
362,213000000,imu1_frame,0.0012533700610423888,-0.01558075165244261,0.0034545332518772474,0.9998718595107308,-0.0045118418764792095,-0.016168057651402373,-0.0002780377789971088,0.23046875,0.0390625,9.6875
362,238000000,imu1_frame,0.0012063787841799691,-0.015764132429469117,0.003449767993896058,0.9998690593671572,-0.0045118418764792095,-0.016168057651402373,-0.0002780377789971088,0.26953125,0.0390625,9.69140625
362,264000000,imu1_frame,0.0011576531300126383,-0.01595368857573876,0.0034448069185303593,0.9998661275217563,-0.0045118418764792095,-0.016168057651402373,-0.0002780377789971088,0.26953125,0.0390625,9.69140625
362,288000000,imu1_frame,0.0011363811526041245,-0.015939649508936237,0.003440802035959582,0.9998663896205121,-0.002558716876479209,-0.000543057651402374,-0.0002780377789971088,0.26953125,0.0390625,9.69140625
362,314000000,imu1_frame,0.001113537675040437,-0.016026802176456103,0.0034109707425409117,0.9998651243665001,-0.002558716876479209,-0.008355557651402374,-0.0022311627789971086,0.26953125,0.0390625,9.69140625
362,338000000,imu1_frame,0.001093455216612762,-0.016122989004299114,0.0033834335128654753,0.9998636936897553,-0.002558716876479209,-0.008355557651402374,-0.0022311627789971086,0.3046875,0.0390625,9.6875
362,363000000,imu1_frame,0.0011437357370577012,-0.01612549265697064,0.0034048717828936686,0.9998635242888281,0.003300658123520791,-0.000543057651402374,0.0016750872210028911,0.3046875,0.0390625,9.6875
362,388000000,imu1_frame,0.0010974828124599796,-0.016200772914048173,0.0034002316846734565,0.999862374986155,-0.0045118418764792095,-0.006402432651402374,-0.0002780377789971088,0.3046875,0.0390625,9.6875
362,413000000,imu1_frame,0.0010751649191081591,-0.016299436708908904,0.0034447755175361526,0.9998606432423485,-0.002558716876479209,-0.008355557651402374,0.0036282122210028914,0.3046875,0.0390625,9.6875
362,439000000,imu1_frame,0.0010517962101041375,-0.016401254872477795,0.003491101060289283,0.9998588424256333,-0.002558716876479209,-0.008355557651402374,0.0036282122210028914,0.3046875,0.0390625,9.6875
362,463000000,imu1_frame,0.0009865004793943389,-0.016540236732649767,0.0034392807673343157,0.9998567991134708,-0.0064649668764792095,-0.012261807651402374,-0.004184287778997109,0.3046875,0.0390625,9.6875
362,489000000,imu1_frame,0.0009154912123594543,-0.01667180188868413,0.003383128244403025,0.9998548731395505,-0.0064649668764792095,-0.012261807651402374,-0.004184287778997109,0.26953125,0.0390625,9.69140625
362,513000000,imu1_frame,0.0009889624212086469,-0.016511069391763195,0.0033807625065993816,0.9998574783366597,0.0052537831235207905,0.011175692348597626,-0.0002780377789971088,0.26953125,0.0390625,9.69140625
362,538000000,imu1_frame,0.0010642825338376195,-0.016346403591590113,0.0033783202734836526,0.9998601148882972,0.0052537831235207905,0.011175692348597626,-0.0002780377789971088,0.26953125,0.0390625,9.69140625
362,564000000,imu1_frame,0.0011406785637891079,-0.016178726770992705,0.0033758259052327055,0.9998627663094278,0.005201245292285583,0.01106393542511165,-0.0002752574012071377,0.26953125,0.0390625,9.73046875
362,588000000,imu1_frame,0.001142886918485938,-0.016186278577042027,0.0033253166413238803,0.9998628108218411,-0.0006581297077144169,-0.00260793957488835,-0.004181507401207138,0.26953125,0.0390625,9.73046875
362,614000000,imu1_frame,0.0011685641559461338,-0.016171090312387892,0.0033218640186214793,0.9998630383784392,0.0012820453393627273,-0.0006482664291394667,-0.0002725048271950663,0.26953125,0.0390625,9.73046875
362,638000000,imu1_frame,0.0011927912684201855,-0.01615597423882286,0.003318666407334689,0.9998632647510666,0.0012820453393627273,-0.0006482664291394667,-0.0002725048271950663,0.26953125,0.0390625,9.69140625
362,663000000,imu1_frame,0.0012174133998731603,-0.016141327930340985,0.0033153458681074517,0.9998634826410223,0.0012820453393627273,-0.0006482664291394667,-0.0002725048271950663,0.26953125,0.0390625,9.69140625
362,689000000,imu1_frame,0.0012919433944312546,-0.015900779881003774,0.0033130117254779223,0.9998672512062531,0.005188295339362727,0.016929858570860535,-0.0002725048271950663,0.26953125,0.0390625,9.69140625
362,713000000,imu1_frame,0.0012915041820361543,-0.015818843398590333,0.0033095478261903847,0.9998685629139787,-0.0006710796606372727,0.005211108570860533,-0.0002725048271950663,0.26953125,0.0390625,9.69140625
362,739000000,imu1_frame,0.001290335050445546,-0.015712480745488366,0.0033057859629250946,0.9998702539647071,-0.0006710796606372727,0.005211108570860533,-0.0002725048271950663,0.23046875,0.0390625,9.6875
362,763000000,imu1_frame,0.0013594547537073695,-0.015612107871658384,0.003303416331228519,0.9998717424805639,0.005188295339362727,0.005211108570860533,-0.0002725048271950663,0.23046875,0.0390625,9.6875
362,789000000,imu1_frame,0.0014330625647220121,-0.015527651900601458,0.0033008980727315365,0.9998729631458453,0.005188295339362727,0.005211108570860533,-0.0002725048271950663,0.26953125,0.0390625,9.69140625
362,814000000,imu1_frame,0.001407342973837828,-0.015640282164353578,0.003296669157338881,0.999871258178792,-0.002624204660637273,-0.010413891429139467,-0.0002725048271950663,0.26953125,0.0390625,9.69140625
362,838000000,imu1_frame,0.0013633221594201719,-0.015744898974909938,0.0032929549380676533,0.9998696894879529,-0.0025979626140309,-0.010309752514848072,-0.00026977977892311567,0.26953125,0.0,9.73046875
362,863000000,imu1_frame,0.0013386184299107556,-0.01585406701592795,0.0032887550300903963,0.9998680116645925,-0.0025979626140309,-0.010309752514848072,-0.00026977977892311567,0.26953125,0.0390625,9.69140625
362,888000000,imu1_frame,0.0013141609613249092,-0.01596214324743597,0.0032845491569135463,0.9998663384176667,-0.0025979626140309,-0.010309752514848072,-0.00026977977892311567,0.26953125,0.0390625,9.69140625
362,913000000,imu1_frame,0.0012407694969416272,-0.016045193204009493,0.0033284051448820517,0.9998649578744588,-0.0065042126140309,-0.008356627514848072,0.0036364702210768844,0.26953125,0.0390625,9.69140625
362,939000000,imu1_frame,0.0011648847579448292,-0.016131560782779754,0.0033740101224948873,0.9998635066077297,-0.0065042126140309,-0.008356627514848072,0.0036364702210768844,0.26953125,0.0390625,9.69140625
362,963000000,imu1_frame,0.00107609146593228,-0.016208835471147345,0.00341641053041787,0.9998622124167479,-0.0065042126140309,-0.008356627514848072,0.0036364702210768844,0.26953125,0.0,9.69140625
362,989000000,imu1_frame,0.0010078378269701282,-0.01634376101226623,0.003411908384050907,0.9998601025243818,-0.0045510876140309,-0.012262877514848072,-0.00026977977892311567,0.26953125,0.0,9.69140625
363,13000000,imu1_frame,0.0009209907969796279,-0.016418886189931255,0.003430851831454112,0.9998588906480478,-0.0065042126140309,-0.008356627514848072,0.0016833452210768844,0.26953125,0.0,9.69140625
363,38000000,imu1_frame,0.000832599349514089,-0.01649581282213628,0.003450373486465499,0.9998576347963065,-0.006439170487890591,-0.008273061239699592,0.0016665117688661156,0.26953125,0.0,9.73046875
363,63000000,imu1_frame,0.0008661346825454656,-0.016402347261514686,0.0034232375731479484,0.9998592372226914,0.003326454512109409,0.005398813760300408,-0.0022397382311338844,0.26953125,0.0,9.73046875
363,89000000,imu1_frame,0.0009211299241054596,-0.016307626738504718,0.003394686124803234,0.9998608347844886,0.003326454512109409,0.005398813760300408,-0.0022397382311338844,0.26953125,0.0390625,9.69140625
363,113000000,imu1_frame,0.0009260965366077728,-0.016288968077556858,0.003367486551086768,0.9998612263201837,-0.000579795487890591,-0.0004605612396995913,-0.0022397382311338844,0.26953125,0.0390625,9.69140625
363,138000000,imu1_frame,0.0009064113443287256,-0.01622247237479086,0.0033388085902141033,0.9998624216189554,-0.002532920487890591,0.0034456887603004087,-0.0022397382311338844,0.26953125,0.0390625,9.69140625
363,164000000,imu1_frame,0.0008857433476180271,-0.01617312220484481,0.003309005507055848,0.9998633386915552,-0.002532920487890591,0.0034456887603004087,-0.0022397382311338844,0.3046875,0.0390625,9.6875
363,188000000,imu1_frame,0.0009139423162094095,-0.01617393653796468,0.003305635807458065,0.9998633112872064,0.001373329512109409,-0.0004605612396995913,-0.0002866132311338845,0.3046875,0.0390625,9.6875
363,213000000,imu1_frame,0.0008457394827569168,-0.016368663737847528,0.0033491820641914434,0.9998600574838789,-0.006439170487890591,-0.01608556123969959,0.0036196367688661156,0.3046875,0.0390625,9.6875
363,238000000,imu1_frame,0.000778939842544128,-0.01655881869164682,0.003392275057725215,0.999856835375041,-0.006374778783011685,-0.015924705627302596,0.0035834404011774543,0.3046875,0.0390625,9.7265625
363,263000000,imu1_frame,0.0007128980499974903,-0.01674770164519288,0.003435350702734619,0.9998535915980514,-0.006374778783011685,-0.015924705627302596,0.0035834404011774543,0.3046875,0.0390625,9.6875
363,288000000,imu1_frame,0.000671592936044605,-0.01678959702005119,0.0034545197373687937,0.9998528515177705,-0.004421653783011685,-0.004205955627302595,0.0016303154011774543,0.3046875,0.0390625,9.6875
363,313000000,imu1_frame,0.000726952494944363,-0.016709907321606134,0.0034754205499569575,0.9998540753476852,0.0033908462169883148,0.005559669372697405,0.0016303154011774543,0.3046875,0.0390625,9.6875
363,339000000,imu1_frame,0.0007834174365269432,-0.016628257291169075,0.0034971778072915545,0.9998553180655505,0.0033908462169883148,0.005559669372697405,0.0016303154011774543,0.3046875,0.0390625,9.6875
363,364000000,imu1_frame,0.0008618927452347251,-0.01645341140718377,0.0034941780672883885,0.9998581564970082,0.005343971216988315,0.013372169372697404,-0.00032280959882254566,0.3046875,0.0390625,9.6875
363,388000000,imu1_frame,0.000936888847866099,-0.01626875854232542,0.0034912920551194767,0.9998611206635472,0.005343971216988315,0.013372169372697404,-0.00032280959882254566,0.26953125,0.0390625,9.69140625
363,413000000,imu1_frame,0.0010149285670150168,-0.016079257393416795,0.0034150774711304357,0.9998643731264487,0.005343971216988315,0.013372169372697404,-0.006182184598822546,0.26953125,0.0390625,9.69140625
363,439000000,imu1_frame,0.001094914029916084,-0.01590320348222485,0.003335855088256589,0.9998673718814413,0.005343971216988315,0.013372169372697404,-0.006182184598822546,0.3046875,0.0390625,9.6875
363,463000000,imu1_frame,0.0011687452151620383,-0.015742171237342978,0.0032627310654218186,0.9998700778927986,0.005343971216988315,0.013372169372697404,-0.006182184598822546,0.3046875,0.0390625,9.6875
363,488000000,imu1_frame,0.0012913073901558495,-0.015455210161657447,0.003260736750363705,0.9998744104135918,0.009250221216988316,0.023137794372697404,-0.00032280959882254566,0.3046875,0.0390625,9.6875
363,514000000,imu1_frame,0.0012675893160016285,-0.01541144657686947,0.003230597264522423,0.9998752141007642,-0.0024685287830116852,0.0036065443726974048,-0.0022759345988225457,0.3046875,0.0390625,9.6875
363,539000000,imu1_frame,0.001245314092810539,-0.015369903436375428,0.0032016099935139927,0.9998759747861812,-0.0024685287830116852,0.0036065443726974048,-0.0022759345988225457,0.3046875,0.0390625,9.6875
363,563000000,imu1_frame,0.0012244674808100512,-0.015330558531038426,0.0031737750936224156,0.999876693300814,-0.0024685287830116852,0.0036065443726974048,-0.0022759345988225457,0.3046875,0.0390625,9.6875
363,588000000,imu1_frame,0.0012988994165645958,-0.015168683035400556,0.00314644762807656,0.999879154589494,0.005343971216988315,0.013372169372697404,-0.0022759345988225457,0.3046875,0.0390625,9.6875
363,613000000,imu1_frame,0.0012760841096155263,-0.015177930544593028,0.003141825788984955,0.9998790581687569,-0.0024685287830116852,-0.0002997056273025954,-0.00032280959882254566,0.3046875,0.0390625,9.6875
363,639000000,imu1_frame,0.001252213656866297,-0.015169054727638655,0.0031369986929835093,0.9998792381977075,-0.0024685287830116852,-0.0002997056273025954,-0.00032280959882254566,0.26953125,0.0390625,9.69140625
363,663000000,imu1_frame,0.0013000379643346507,-0.014974142473664059,0.003133844545811992,0.9998821250411632,0.0033908462169883148,0.015325294372697404,-0.00032280959882254566,0.26953125,0.0390625,9.69140625
363,689000000,imu1_frame,0.0013506974291200798,-0.014765997539402675,0.0031304505087068678,0.9998851640127149,0.0033908462169883148,0.015325294372697404,-0.00032280959882254566,0.26953125,0.0390625,9.69140625
363,713000000,imu1_frame,0.0014203485176040264,-0.014667905772680618,0.0031744101702395337,0.9998863726796178,0.005343971216988315,0.007512794372697405,0.0035834404011774543,0.26953125,0.0390625,9.69140625
363,738000000,imu1_frame,0.0014689123766138629,-0.014712081952321016,0.0031708231205483817,0.9998856648746377,0.0033908462169883148,-0.004205955627302595,-0.00032280959882254566,0.26953125,0.0390625,9.69140625
363,763000000,imu1_frame,0.0015169901403592585,-0.014755816353161344,0.003167241261118138,0.9998849599866274,0.0033908462169883148,-0.004205955627302595,-0.00032280959882254566,0.26953125,0.0390625,9.69140625
363,788000000,imu1_frame,0.0014679471397766848,-0.014920291348406492,0.003186433501442805,0.999882531439976,-0.004421653783011685,-0.013971580627302596,0.0016303154011774543,0.26953125,0.0390625,9.69140625
363,813000000,imu1_frame,0.0014190892301668952,-0.014986452719619696,0.003205760322035181,0.9998815507455856,-0.004421653783011685,-0.006159080627302595,0.0016303154011774543,0.26953125,0.0390625,9.69140625
363,838000000,imu1_frame,0.0013707879591220375,-0.015070135012803508,0.003225102004762827,0.9998802981798001,-0.004421653783011685,-0.006159080627302595,0.0016303154011774543,0.3046875,0.0390625,9.6875
363,863000000,imu1_frame,0.0013229724479089508,-0.015152980088715753,0.003244433427660277,0.9998790479803378,-0.004421653783011685,-0.006159080627302595,0.0016303154011774543,0.3046875,0.0390625,9.6875
363,888000000,imu1_frame,0.0013236096771795298,-0.015234870940675379,0.0032889132497368246,0.9998776574233866,-0.0005154037830116851,-0.006159080627302595,0.0035834404011774543,0.3046875,0.0390625,9.6875
363,914000000,imu1_frame,0.0012497453578057668,-0.015444844172513935,0.003283056333088957,0.9998745503642651,-0.006374778783011685,-0.015924705627302596,-0.00032280959882254566,0.3046875,0.0390625,9.6875
363,939000000,imu1_frame,0.001160376251293309,-0.015642288071974337,0.003277772711624812,0.9998716060359348,-0.006311030995181568,-0.01576545857102957,-0.0003195815028343202,0.3046875,0.0,9.7265625
363,963000000,imu1_frame,0.0011202760748561344,-0.01559781760654499,0.003297142777502717,0.9998722828026257,-0.0024047809951815683,0.0037657914289704305,0.0016335434971656798,0.3046875,0.0,9.7265625
363,989000000,imu1_frame,0.0010982460702767117,-0.015532454135640769,0.003317774990354683,0.9998732565146478,-0.0024047809951815683,0.0037657914289704305,0.0016335434971656798,0.26953125,0.0390625,9.69140625
364,13000000,imu1_frame,0.0010558109187552968,-0.015517939400985226,0.003336386849714709,0.9998734656659513,-0.004357905995181568,-0.00014045857102956943,0.0016335434971656798,0.26953125,0.0390625,9.69140625
364,38000000,imu1_frame,0.0011088031396780061,-0.015430773821728534,0.0033085623804154996,0.9998748497636267,0.0034545940048184317,0.0057189164289704305,-0.0022727065028343204,0.26953125,0.0390625,9.69140625
364,63000000,imu1_frame,0.001161261274663369,-0.015344480025211056,0.003280747060226085,0.9998762098898716,0.0034545940048184317,0.0057189164289704305,-0.0022727065028343204,0.26953125,0.0390625,9.69140625
364,88000000,imu1_frame,0.0011887644023432984,-0.015404185388266671,0.003301211690914851,0.9998751921680483,0.0015014690048184317,-0.0059998335710295695,0.0016335434971656798,0.26953125,0.0390625,9.69140625
364,113000000,imu1_frame,0.0011678710338926673,-0.015415090979282725,0.0032965670948088763,0.9998750640418722,-0.0024047809951815683,-0.0020935835710295695,-0.0003195815028343202,0.26953125,0.0390625,9.69140625
364,138000000,imu1_frame,0.001147252204178116,-0.015444070364727412,0.00329193835001166,0.9998746559668613,-0.0024047809951815683,-0.0020935835710295695,-0.0003195815028343202,0.3046875,0.0390625,9.6875
364,164000000,imu1_frame,0.0011256543879601074,-0.01547379992941133,0.003287125712492539,0.9998742367030434,-0.0024047809951815683,-0.0020935835710295695,-0.0003195815028343202,0.3046875,0.0390625,9.6875
364,189000000,imu1_frame,0.001081050814136864,-0.015429771098191871,0.003282190781764776,0.9998749825436513,-0.004357905995181568,0.0037657914289704305,-0.0003195815028343202,0.3046875,0.0390625,9.6875
364,214000000,imu1_frame,0.001205268317258772,-0.015143957407945139,0.0032801823910778363,0.9998792168486107,0.009313969004818432,0.02329704142897043,-0.0003195815028343202,0.3046875,0.0390625,9.6875
364,238000000,imu1_frame,0.0013236029885936875,-0.014854363446917172,0.003278254371788788,0.9998834177092794,0.009313969004818432,0.02329704142897043,-0.0003195815028343202,0.26953125,0.0390625,9.69140625
364,263000000,imu1_frame,0.0013724327215301087,-0.014653087489740162,0.0033238680095135278,0.9998861711999513,0.0034545940048184317,0.015484541428970431,0.0035866684971656796,0.26953125,0.0390625,9.69140625
364,289000000,imu1_frame,0.001422439547286776,-0.014446155712596586,0.0033713227163408676,0.9998889535513452,0.0034545940048184317,0.015484541428970431,0.0035866684971656796,0.26953125,0.0390625,9.69140625
364,313000000,imu1_frame,0.0014460993064326065,-0.014256639699302931,0.003367918942736293,0.9998916512019067,0.0015014690048184317,0.015484541428970431,-0.0003195815028343202,0.26953125,0.0390625,9.69140625
364,339000000,imu1_frame,0.0014709611864323535,-0.01405368483331717,0.0033642480048687432,0.9998945004605014,0.0015014690048184317,0.015484541428970431,-0.0003195815028343202,0.26953125,0.0390625,9.69140625
364,364000000,imu1_frame,0.0014948544259811654,-0.013860425768242294,0.0033607232309013756,0.9998971744870236,0.0015014690048184317,0.015484541428970431,-0.0003195815028343202,0.26953125,0.0390625,9.69140625
364,389000000,imu1_frame,0.0015191648058412205,-0.0137657331240106,0.003332647351781007,0.9998985399486691,0.0015014690048184317,0.0076720414289704305,-0.0022727065028343204,0.26953125,0.0390625,9.69140625
364,414000000,imu1_frame,0.0015433965218595615,-0.013623616434203541,0.0032802409577592376,0.999900622572908,0.0015014690048184317,0.011578291428970431,-0.00422583150283432,0.26953125,0.0390625,9.69140625
364,438000000,imu1_frame,0.0015666262803068147,-0.013488657713049811,0.0032299349503473076,0.9999025799123705,0.0015014690048184317,0.011578291428970431,-0.00422583150283432,0.26953125,0.0390625,9.69140625
364,463000000,imu1_frame,0.0015702262443869739,-0.01334937762268812,0.0031778114129105695,0.9999046104610441,0.0015014690048184317,0.011578291428970431,-0.00422583150283432,0.26953125,0.0,9.69140625
364,488000000,imu1_frame,0.0014532277443623479,-0.013501962072819089,0.003172403106216537,0.9999027557757,-0.008264155995181568,-0.011859208571029569,-0.0003195815028343202,0.26953125,0.0,9.69140625
364,514000000,imu1_frame,0.0013331691386389995,-0.01360863429763181,0.0031668291592289372,0.9999014946111829,-0.008264155995181568,-0.007952958571029569,-0.0003195815028343202,0.26953125,0.0,9.69140625
364,539000000,imu1_frame,0.0012183858871053638,-0.013710290492796297,0.003161461364213834,0.9999002693431359,-0.008264155995181568,-0.007952958571029569,-0.0003195815028343202,0.26953125,0.0,9.69140625
364,563000000,imu1_frame,0.0012244630295195204,-0.01369061015183623,0.003158066101398321,0.999900542305313,0.0015014690048184317,0.0018126664289704305,-0.0003195815028343202,0.26953125,0.0,9.69140625
364,589000000,imu1_frame,0.0012521711625988502,-0.013687446245354123,0.0031541203850806144,0.9999005637598454,0.0015014690048184317,0.0018126664289704305,-0.0003195815028343202,0.3046875,0.0390625,9.6875
364,613000000,imu1_frame,0.0012778241094629078,-0.013593310111373755,0.0031505953684227627,0.9999018265982844,0.0015014690048184317,0.009625166428970431,-0.0003195815028343202,0.3046875,0.0390625,9.6875
364,638000000,imu1_frame,0.0013039504114703822,-0.01349534870602681,0.003146934354859678,0.999903131348629,0.0015014690048184317,0.009625166428970431,-0.0003195815028343202,0.3046875,0.0390625,9.6875
364,663000000,imu1_frame,0.001329751159261992,-0.013380183487197416,0.0031432583159806964,0.9999046566442534,0.0015014690048184317,0.009625166428970431,-0.0003195815028343202,0.26953125,0.0390625,9.69140625
364,688000000,imu1_frame,0.001282682070662917,-0.013435634385103838,0.0031871916245538503,0.9999038355086572,-0.004357905995181568,-0.0040467085710295695,0.0035866684971656796,0.26953125,0.0390625,9.69140625
364,714000000,imu1_frame,0.0013091582567805425,-0.013442033203502348,0.003233977601880668,0.9999035649685849,0.0015014690048184317,-0.00014045857102956943,0.0035866684971656796,0.26953125,0.0390625,9.69140625
364,739000000,imu1_frame,0.001314512932635851,-0.013448364766418116,0.0032792348434205697,0.9999033254068621,0.0015014690048184317,-0.00014045857102956943,0.0035866684971656796,0.26953125,0.0,9.69140625
364,764000000,imu1_frame,0.0013399634659482021,-0.013454564684213398,0.0033242217120522323,0.9999030596698248,0.0015014690048184317,-0.00014045857102956943,0.0035866684971656796,0.26953125,0.0390625,9.69140625
364,788000000,imu1_frame,0.0012492126595415006,-0.013600192767132221,0.003342189319342772,0.9999011471115442,-0.008264155995181568,-0.011859208571029569,0.0016335434971656798,0.26953125,0.0390625,9.69140625
364,813000000,imu1_frame,0.0012759687542152657,-0.013604809692750207,0.003338343688615973,0.9999010633649607,0.0015014690048184317,-0.00014045857102956943,-0.0003195815028343202,0.26953125,0.0390625,9.69140625
364,838000000,imu1_frame,0.0013024568138553627,-0.013609380483400242,0.0033345017301310343,0.999900979831162,0.0015014690048184317,-0.00014045857102956943,-0.0003195815028343202,0.26953125,0.0390625,9.69140625
364,863000000,imu1_frame,0.00128034105558441,-0.013710767845419336,0.0033542745165131187,0.9998995571627874,-0.0024047809951815683,-0.007952958571029569,0.0016335434971656798,0.26953125,0.0390625,9.69140625
364,889000000,imu1_frame,0.0012570924443473443,-0.01376481392720892,0.0033749021622328456,0.9998987747024852,-0.0024047809951815683,-0.0040467085710295695,0.0016335434971656798,0.26953125,0.0390625,9.69140625
364,913000000,imu1_frame,0.0012140560907812304,-0.013860725821737417,0.0033466743906885267,0.9998975978159093,-0.004357905995181568,-0.007952958571029569,-0.0022727065028343204,0.26953125,0.0390625,9.69140625
364,938000000,imu1_frame,0.0011693846356959944,-0.013977804160297917,0.0033172855646306206,0.9998961191778439,-0.004357905995181568,-0.007952958571029569,-0.0022727065028343204,0.3046875,0.0390625,9.6875
364,963000000,imu1_frame,0.0011251556078488171,-0.014093711847784175,0.0032878855257519033,0.999894640009626,-0.004357905995181568,-0.007952958571029569,-0.0022727065028343204,0.3046875,0.0390625,9.6875
364,988000000,imu1_frame,0.0011046995138582225,-0.014160099799291337,0.0033077009779898824,0.9998936595092992,-0.0024047809951815683,-0.0040467085710295695,0.0016335434971656798,0.3046875,0.0390625,9.6875
365,13000000,imu1_frame,0.0010851088433104928,-0.014322466650816549,0.0033029896526211126,0.9998913839748741,-0.0024047809951815683,-0.011859208571029569,-0.0003195815028343202,0.3046875,0.0390625,9.6875
365,39000000,imu1_frame,0.001064544638662063,-0.014489082941105074,0.0032980862706194548,0.9998890217655105,-0.0024047809951815683,-0.011859208571029569,-0.0003195815028343202,0.3046875,0.0390625,9.6875
365,63000000,imu1_frame,0.0010263734964473246,-0.014642352963771824,0.0032938368748677187,0.9998868429456265,-0.0024047809951815683,-0.011859208571029569,-0.0003195815028343202,0.3046875,0.0,9.6875
365,88000000,imu1_frame,0.0010115340784925177,-0.014679023200843737,0.0032654742442637555,0.9998864134263638,-0.00045165599518156825,-0.0020935835710295695,-0.0022727065028343204,0.3046875,0.0,9.6875
365,113000000,imu1_frame,0.0009725926422591788,-0.014691238739542409,0.003236772013140076,0.9998863659810474,-0.0024047809951815683,-0.00014045857102956943,-0.0022727065028343204,0.3046875,0.0,9.6875
365,138000000,imu1_frame,0.0009541852410419274,-0.0147032671166574,0.0032077672314531624,0.999886300384204,-0.0024047809951815683,-0.00014045857102956943,-0.0022727065028343204,0.3046875,0.0390625,9.6875
365,163000000,imu1_frame,0.0009840181560996772,-0.014739210105079314,0.0032038720577185296,0.9998857547728063,0.0015014690048184317,-0.0020935835710295695,-0.0003195815028343202,0.3046875,0.0390625,9.6875
365,188000000,imu1_frame,0.0009887228292420403,-0.014678225735183657,0.0032241262385998932,0.9998865821314094,-0.00045165599518156825,0.0057189164289704305,0.0016335434971656798,0.3046875,0.0390625,9.6875
365,213000000,imu1_frame,0.0010660025366878263,-0.014545092035174678,0.0032211322641343635,0.9998884579007886,0.005407719004818432,0.011578291428970431,-0.0003195815028343202,0.3046875,0.0390625,9.6875
365,238000000,imu1_frame,0.0011425092390562135,-0.014413289342366076,0.003218155310265361,0.9998902916017192,0.005407719004818432,0.011578291428970431,-0.0003195815028343202,0.3046875,0.0390625,9.6875
365,263000000,imu1_frame,0.0012182506671665886,-0.014282804357522565,0.003215195208317549,0.999892084119466,0.005407719004818432,0.011578291428970431,-0.0003195815028343202,0.3046875,0.0390625,9.6875
365,289000000,imu1_frame,0.0012206540746016513,-0.014198395109163575,0.0032109754696238854,0.9998932969154698,-0.00045165599518156825,0.0076720414289704305,-0.0003195815028343202,0.3046875,0.0390625,9.6875
365,314000000,imu1_frame,0.0012485294717216166,-0.014142629330431014,0.0031340029817230664,0.9998942970309866,0.0015014690048184317,0.0057189164289704305,-0.00617895650283432,0.3046875,0.0390625,9.6875
365,338000000,imu1_frame,0.001275338258639523,-0.014090258678276965,0.0030601118399334044,0.9998952314308898,0.0015014690048184317,0.0057189164289704305,-0.00617895650283432,0.3046875,0.0390625,9.6875
365,364000000,imu1_frame,0.001303422828615611,-0.014032739171135705,0.0029800774977642003,0.9998962458467339,0.0015014690048184317,0.0057189164289704305,-0.00617895650283432,0.3046875,0.0390625,9.6875
365,388000000,imu1_frame,0.0012821100282509018,-0.01402812803332723,0.002999211900896896,0.9998962808940384,-0.0024047809951815683,0.0018126664289704305,0.0016335434971656798,0.3046875,0.0390625,9.6875
365,413000000,imu1_frame,0.0012844565425480913,-0.014070902004567594,0.0029950148156193002,0.9998956894468655,-0.00045165599518156825,-0.0020935835710295695,-0.0003195815028343202,0.3046875,0.0390625,9.6875
365,438000000,imu1_frame,0.0012867789872808841,-0.014113248266243135,0.002990816942822571,0.9998951022168414,-0.00045165599518156825,-0.0020935835710295695,-0.0003195815028343202,0.3046875,0.0390625,9.6875
365,464000000,imu1_frame,0.0012383905117149157,-0.014206658090904451,0.0030110507387460465,0.9998937797727705,-0.004357905995181568,-0.0059998335710295695,0.0016335434971656798,0.3046875,0.0390625,9.6875
365,488000000,imu1_frame,0.0011942718321765625,-0.014223605571627938,0.00305323359820693,0.9998934645870672,-0.004357905995181568,-0.00014045857102956943,0.0035866684971656796,0.3046875,0.0390625,9.6875
365,513000000,imu1_frame,0.0012216007999630953,-0.014240183080997199,0.0030494005584539097,0.9998932073144309,0.0015014690048184317,-0.00014045857102956943,-0.0003195815028343202,0.3046875,0.0390625,9.6875
365,538000000,imu1_frame,0.001248655992029065,-0.014256594842399115,0.0030455717510250602,0.9998929516975418,0.0015014690048184317,-0.00014045857102956943,-0.0003195815028343202,0.3046875,0.0390625,9.6875
365,563000000,imu1_frame,0.0012269580477793551,-0.014224655090579314,0.0030411052680877305,0.9998934470433596,-0.0024047809951815683,0.0037657914289704305,-0.0003195815028343202,0.3046875,0.0390625,9.6875
365,589000000,imu1_frame,0.0012794558974022555,-0.014115542737186463,0.003037651683351622,0.9998949380400383,0.0034545940048184317,0.009625166428970431,-0.0003195815028343202,0.3046875,0.0390625,9.6875
365,614000000,imu1_frame,0.0012814692660756072,-0.014036604991642275,0.003033610480899827,0.9998960589802717,-0.00045165599518156825,0.0076720414289704305,-0.0003195815028343202,0.3046875,0.0390625,9.6875
365,638000000,imu1_frame,0.0012635440583869853,-0.0139444853749442,0.003030026594635611,0.9998973815961698,-0.00044713943522975256,0.007595321014680727,-0.00031638568780597697,0.26953125,0.0,9.73046875
365,663000000,imu1_frame,0.0012456244128926225,-0.013868269204232446,0.003026304550491186,0.9998984753513073,-0.00044713943522975256,0.007595321014680727,-0.00031638568780597697,0.3046875,0.0,9.6875
365,689000000,imu1_frame,0.001328458517856304,-0.013763586492528275,0.0029984899694291277,0.9998998989612572,0.0073653605647702475,0.009548446014680726,-0.002269510687805977,0.3046875,0.0,9.6875
365,714000000,imu1_frame,0.001426902463539921,-0.013646445052601182,0.002971466371564904,0.9999014495811018,0.0073653605647702475,0.009548446014680726,-0.002269510687805977,0.26953125,0.0390625,9.69140625
365,739000000,imu1_frame,0.00152435848142833,-0.013530475062821875,0.0029444597906937995,0.9999029616579478,0.0073653605647702475,0.009548446014680726,-0.002269510687805977,0.26953125,0.0390625,9.69140625
365,764000000,imu1_frame,0.001620896425048717,-0.013433848162069932,0.0029174979366350415,0.9999041917224507,0.0073653605647702475,0.009548446014680726,-0.002269510687805977,0.3046875,0.0390625,9.6875
365,788000000,imu1_frame,0.0016434189941365858,-0.013412732095542213,0.0028905616774156893,0.9999045166639323,0.0015059855647702475,0.003689071014680726,-0.002269510687805977,0.3046875,0.0390625,9.6875
365,813000000,imu1_frame,0.001666408817673996,-0.013371814375764306,0.0028624799558203177,0.9999051074329278,0.0015059855647702475,0.003689071014680726,-0.002269510687805977,0.26953125,0.0390625,9.69140625
365,838000000,imu1_frame,0.001689165041140774,-0.01333130625421784,0.0028344025833880212,0.9999056901313321,0.0015059855647702475,0.003689071014680726,-0.002269510687805977,0.26953125,0.0390625,9.69140625
365,863000000,imu1_frame,0.001638891625405588,-0.0134123280334468,0.0028539576343410895,0.9999046346611185,-0.0043533894352297525,-0.006076553985319273,0.0016367393121940231,0.26953125,0.0390625,9.69140625
365,889000000,imu1_frame,0.0015868948025843067,-0.013470419930045587,0.0028743292836638156,0.9999038792718844,-0.0043533894352297525,-0.004123428985319273,0.0016367393121940231,0.26953125,0.0390625,9.69140625
365,913000000,imu1_frame,0.0015397398883189918,-0.013523833788319247,0.0028931212763067884,0.999903177797742,-0.0043533894352297525,-0.004123428985319273,0.0016367393121940231,0.26953125,0.0390625,9.69140625
365,939000000,imu1_frame,0.0014887396129307886,-0.01358080988523956,0.0029134757937887877,0.9999024236974452,-0.0043533894352297525,-0.004123428985319273,0.0016367393121940231,0.26953125,0.0390625,9.69140625
365,963000000,imu1_frame,0.0014426314161286894,-0.013651302396898806,0.002932275477646889,0.999901476405545,-0.0043533894352297525,-0.004123428985319273,0.0016367393121940231,0.3046875,0.0390625,9.6875
365,988000000,imu1_frame,0.00141929263195821,-0.013602160689628868,0.0029035427855062072,0.9999022633599202,-0.0024002644352297525,0.005642196014680727,-0.002269510687805977,0.3046875,0.0390625,9.6875
366,13000000,imu1_frame,0.0013961242472178247,-0.01353532745472201,0.0028747835390632082,0.9999032860068935,-0.0024002644352297525,0.005642196014680727,-0.002269510687805977,0.26953125,0.0390625,9.69140625
366,38000000,imu1_frame,0.0013731836256195556,-0.013469162877442518,0.002846022819809178,0.9999042935062438,-0.0024002644352297525,0.005642196014680727,-0.002269510687805977,0.26953125,0.0390625,9.69140625
366,64000000,imu1_frame,0.0013492875132877402,-0.01340086950578179,0.0028161135975518013,0.9999053283305882,-0.0024002644352297525,0.005642196014680727,-0.002269510687805977,0.26953125,0.0390625,9.69140625
366,88000000,imu1_frame,0.0013976566892437326,-0.013361845801664695,0.0027894168379114267,0.9999058589618606,0.0034591105647702475,0.003689071014680726,-0.002269510687805977,0.26953125,0.0390625,9.69140625
366,113000000,imu1_frame,0.0014472605732010829,-0.013321380390801007,0.002761619467120599,0.9999064054796508,0.0034591105647702475,0.003689071014680726,-0.002269510687805977,0.26953125,0.0390625,9.69140625
366,139000000,imu1_frame,0.0014980866904531751,-0.013279487705823321,0.002732721724419361,0.9999069672597125,0.0034591105647702475,0.003689071014680726,-0.002269510687805977,0.26953125,0.0390625,9.69140625
366,163000000,imu1_frame,0.0014983768747606663,-0.013288241910183239,0.0027287848544857453,0.9999068612760369,-0.00044713943522975256,-0.00021717898531927374,-0.00031638568780597697,0.26953125,0.0390625,9.69140625
366,188000000,imu1_frame,0.0014984446696954313,-0.013297016496856934,0.0027246864643652143,0.9999067557025131,-0.00044713943522975256,-0.00021717898531927374,-0.00031638568780597697,0.26953125,0.0390625,9.69140625
366,213000000,imu1_frame,0.0014985112387316448,-0.013305703398218146,0.0027205878658669363,0.9999066512044062,-0.00044713943522975256,-0.00021717898531927374,-0.00031638568780597697,0.26953125,0.0390625,9.69140625
366,238000000,imu1_frame,0.0014985765937733822,-0.013314303491140982,0.0027164890610843206,0.9999065477723003,-0.00044713943522975256,-0.00021717898531927374,-0.00031638568780597697,0.26953125,0.0390625,9.69140625
366,264000000,imu1_frame,0.0014984217875950894,-0.013322925507196765,0.002712228702004207,0.9999064447254774,-0.00044713943522975256,-0.00021717898531927374,-0.00031638568780597697,0.26953125,0.0390625,9.69140625
366,289000000,imu1_frame,0.0014984869166095017,-0.013331353503590552,0.002708129458555073,0.9999063434070008,-0.00044713943522975256,-0.00021717898531927374,-0.00031638568780597697,0.26953125,0.0390625,9.69140625
366,313000000,imu1_frame,0.0014987698021792545,-0.013339589419038182,0.0027041913691537474,0.9999062438010128,-0.00044713943522975256,-0.00021717898531927374,-0.00031638568780597697,0.26953125,0.0390625,9.69140625
366,338000000,imu1_frame,0.0014988303748826256,-0.013347850894238499,0.002700091760391585,0.9999061445398254,-0.00044713943522975256,-0.00021717898531927374,-0.00031638568780597697,0.26953125,0.0390625,9.69140625
366,364000000,imu1_frame,0.0015188135298248723,-0.013356082463495726,0.002695561493531007,0.9999060166910312,-0.00044713943522975256,-0.00021717898531927374,-0.00031638568780597697,0.26953125,0.078125,9.69140625
366,389000000,imu1_frame,0.0015388152339894574,-0.013364123917428531,0.002691194938838496,0.9999058904263923,-0.00044713943522975256,-0.00021717898531927374,-0.00031638568780597697,0.26953125,0.078125,9.69140625
366,414000000,imu1_frame,0.0015586163689821411,-0.013372085014521954,0.0026868307475541708,0.9999057650588444,-0.00044713943522975256,-0.00021717898531927374,-0.00031638568780597697,0.26953125,0.078125,9.69140625
366,438000000,imu1_frame,0.0015582952058660947,-0.013379913688759204,0.0026828998616936148,0.999905671388089,-0.00044713943522975256,-0.00021717898531927374,-0.00031638568780597697,0.26953125,0.0390625,9.69140625
366,463000000,imu1_frame,0.0015577577729337685,-0.013387771983491115,0.002678807369098979,0.9999055780138034,-0.00044713943522975256,-0.00021717898531927374,-0.00031638568780597697,0.26953125,0.0390625,9.69140625
366,489000000,imu1_frame,0.001557006211318969,-0.013395659604199611,0.0026745532364746533,0.9999054849336569,-0.00044713943522975256,-0.00021717898531927374,-0.00031638568780597697,0.26953125,0.0390625,9.69140625
366,513000000,imu1_frame,0.0015566994923520878,-0.013403252724541752,0.0026706215542224064,0.9999053941666715,-0.00044713943522975256,-0.00021717898531927374,-0.00031638568780597697,0.26953125,0.0390625,9.69140625
366,539000000,imu1_frame,0.0015559574108446282,-0.013410985662487773,0.0026663668921240017,0.9999053029900845,-0.00044713943522975256,-0.00021717898531927374,-0.00031638568780597697,0.26953125,0.0390625,9.69140625
366,564000000,imu1_frame,0.0015554411244231173,-0.01341853349346628,0.0026622733145427735,0.9999052134390499,-0.00044713943522975256,-0.00021717898531927374,-0.00031638568780597697,0.26953125,0.0390625,9.69140625
366,588000000,imu1_frame,0.0015551483961718134,-0.013425898066852182,0.0026583408599447226,0.9999051254986329,-0.00044713943522975256,-0.00021717898531927374,-0.00031638568780597697,0.26953125,0.0390625,9.69140625
366,614000000,imu1_frame,0.0015544201691542804,-0.013433404738284057,0.0026540854235434152,0.9999050371138449,-0.00044713943522975256,-0.00021717898531927374,-0.00031638568780597697,0.26953125,0.0390625,9.69140625
366,638000000,imu1_frame,0.0015541365422155908,-0.013440620727149601,0.0026501524667631423,0.9999049510158353,-0.00044713943522975256,-0.00021717898531927374,-0.00031638568780597697,0.26953125,0.0390625,9.69140625
366,663000000,imu1_frame,0.0015536362738611535,-0.013447872456637802,0.0026460579110121553,0.9999048651338037,-0.00044713943522975256,-0.00021717898531927374,-0.00031638568780597697,0.26953125,0.0390625,9.69140625
366,689000000,imu1_frame,0.0015529215087689333,-0.013455159571018041,0.0026418017230484497,0.999904779466206,-0.00044713943522975256,-0.00021717898531927374,-0.00031638568780597697,0.26953125,0.0390625,9.69140625
366,713000000,imu1_frame,0.0015536297306638195,-0.013448004146913762,0.0026378334531144123,0.9999048851034774,-0.00044713943522975256,-0.00021717898531927374,-0.00031638568780597697,0.23046875,0.0390625,9.2265625
366,738000000,imu1_frame,0.0014820544829725556,-0.013610392645077391,0.0026324408665995393,0.9999028107679467,-0.0063065144352297525,-0.013889053985319274,-0.00031638568780597697,0.23046875,0.0390625,9.2265625
366,764000000,imu1_frame,0.0014331610152630088,-0.01375283893456003,0.0026272105535615786,0.999900946711949,-0.0043533894352297525,-0.011935928985319274,-0.00031638568780597697,0.23046875,0.0390625,9.2265625
366,788000000,imu1_frame,0.0013881053360355027,-0.013914371474795632,0.0026224211466049376,0.9998987880467539,-0.0043533894352297525,-0.011935928985319274,-0.00031638568780597697,0.3046875,0.0390625,9.6875
366,813000000,imu1_frame,0.0013614177488823534,-0.014041875663573867,0.0026170903357033413,0.999897056255161,-0.0043533894352297525,-0.011935928985319274,-0.00031638568780597697,0.23046875,0.078125,9.6875
366,838000000,imu1_frame,0.0014093481531736363,-0.013974351771534214,0.0024421788328814987,0.9998983783329668,0.0015059855647702475,0.003689071014680726,-0.013988260687805978,0.23046875,0.078125,9.6875
366,864000000,imu1_frame,0.001417132740608988,-0.013925769720800264,0.0022626997781635305,0.9998994673776923,0.001490925709122545,0.003652180304533919,-0.013848378080927917,0.26953125,0.0,9.73046875
366,888000000,imu1_frame,0.001421427547380401,-0.013904881912792452,0.002214671337962581,0.9998998595027323,0.0014760164520313196,0.0016820647514885797,-0.004041925550118638,0.26953125,0.0,9.73046875
366,913000000,imu1_frame,0.0014666923458043304,-0.01386374632264094,0.002164047225281041,0.9999004761730395,0.0014760164520313196,0.0016820647514885797,-0.004041925550118638,0.23046875,0.078125,9.6875
366,939000000,imu1_frame,0.001491855279581277,-0.013841978449252676,0.0021122518474835073,0.9999008512810499,0.0014612562875110063,0.001665244103973694,-0.004001506294617451,0.26953125,0.0390625,9.73046875
366,963000000,imu1_frame,0.001515082483657137,-0.013822285164183566,0.002064916128682218,0.9999011876577051,0.0014466437246358963,0.0016485916629339571,-0.003961491231671277,0.26953125,0.0390625,9.73046875
366,988000000,imu1_frame,0.00149125048206475,-0.013874014820099112,0.001991153734345517,0.9999006566612394,-0.0024350102126104627,-0.0041686755036953824,-0.005855470069354564,0.26953125,0.0390625,9.73046875
367,13000000,imu1_frame,0.0014677283835877132,-0.013925785755929548,0.0019173865135173871,0.999900115958304,-0.0024350102126104627,-0.0041686755036953824,-0.005855470069354564,0.26953125,0.0390625,9.69140625
367,39000000,imu1_frame,0.0014433100914389935,-0.013997284604159912,0.001840692264815816,0.9998992972953209,-0.0024350102126104627,-0.0041686755036953824,-0.005855470069354564,0.3046875,0.0390625,9.6875
367,63000000,imu1_frame,0.0014208055640394068,-0.014064012718019124,0.0018167575290940934,0.9998984369674238,-0.0024350102126104627,-0.0041686755036953824,-0.0019492200693545644,0.3046875,0.0390625,9.6875
367,88000000,imu1_frame,0.001417421630512744,-0.014093828685671545,0.0017914863921955715,0.999898067547591,-0.0024350102126104627,-0.0041686755036953824,-0.0019492200693545644,0.23046875,0.078125,9.6875
367,113000000,imu1_frame,0.0013939410693808011,-0.014143472351020992,0.0017665251830558664,0.9998974439945972,-0.0024350102126104627,-0.0041686755036953824,-0.0019492200693545644,0.26953125,0.0390625,9.69140625
367,138000000,imu1_frame,0.0012741098992542525,-0.014434497678737182,0.0017642309206595452,0.9998934490284381,-0.010247510212610462,-0.02369992550369538,3.904930645435622e-06,0.26953125,0.0390625,9.69140625
367,163000000,imu1_frame,0.0011554505813536815,-0.014702521983072975,0.0017618902378521194,0.9998896921781327,-0.010247510212610462,-0.02369992550369538,3.904930645435622e-06,0.23046875,0.0390625,9.6875
367,189000000,imu1_frame,0.001082883935518142,-0.014803578244936808,0.0017604045906389357,0.9998882849644782,-0.006341260212610463,-0.010028050503695382,3.904930645435622e-06,0.23046875,0.0390625,9.6875
367,214000000,imu1_frame,0.0010141979649005862,-0.01491874426314641,0.0017589795744343095,0.999886647807118,-0.006341260212610463,-0.010028050503695382,3.904930645435622e-06,0.26953125,0.0390625,9.69140625
367,239000000,imu1_frame,0.000926801356903428,-0.015010985186540288,0.001757839877158363,0.9998853541091302,-0.006277847610484358,-0.009927769998658428,3.865881338981266e-06,0.23046875,0.0,9.7265625
367,263000000,imu1_frame,0.0008635310735883214,-0.015097826081821765,0.0017564389665155348,0.9998841057261811,-0.006277847610484358,-0.009927769998658428,3.865881338981266e-06,0.23046875,0.0390625,9.6875
367,289000000,imu1_frame,0.0008947226110255179,-0.015118079871593916,0.0017819297090737763,0.9998837271697932,0.001534652389515642,-0.004068394998658429,0.0019569908813389814,0.23046875,0.0390625,9.6875
367,314000000,imu1_frame,0.0009248839090598079,-0.01515620703815033,0.0018064516603746744,0.9998830785198689,0.001534652389515642,-0.004068394998658429,0.0019569908813389814,0.26953125,0.0390625,9.69140625
367,339000000,imu1_frame,0.0009547204308203054,-0.015173863390601033,0.001830958176649391,0.9998827381102535,0.001534652389515642,-0.004068394998658429,0.0019569908813389814,0.23046875,0.0390625,9.6875
367,363000000,imu1_frame,0.0009842122614528135,-0.015189286436252286,0.0018076091816955839,0.9998825178253834,0.001534652389515642,-0.004068394998658429,-0.0019492591186610188,0.23046875,0.0390625,9.6875
367,388000000,imu1_frame,0.001052528538345199,-0.01524476930132074,0.0017827502518223627,0.999881648493543,0.001534652389515642,-0.004068394998658429,-0.0019492591186610188,0.3046875,0.11328125,9.6875
367,414000000,imu1_frame,0.0010624497994050513,-0.015270010057325237,0.0017577932748563286,0.9998812970328408,0.001534652389515642,-0.004068394998658429,-0.0019492591186610188,0.23046875,0.0,9.1875
367,439000000,imu1_frame,0.0010001457368117054,-0.015534733433957261,0.0016835932860714935,0.9998774111256281,-0.004324722610484358,-0.02359964499865843,-0.005855509118661019,0.23046875,0.0,9.1875
367,463000000,imu1_frame,0.0009618013648442544,-0.0158062710448728,0.0016120460183333067,0.9998733109956608,-0.004324722610484358,-0.02359964499865843,-0.005855509118661019,0.26953125,0.0390625,9.19140625
367,489000000,imu1_frame,0.0008692354890304304,-0.01574664327523902,0.0015086896585708445,0.9998744978799795,-0.008230972610484359,0.0037441050013415716,-0.007808634118661019,0.26953125,0.0390625,9.19140625
367,513000000,imu1_frame,0.0008019609428513761,-0.0157840958481646,0.001413070880985887,0.9998741032788014,-0.008230972610484359,0.0037441050013415716,-0.007808634118661019,0.44921875,0.0703125,9.375
367,539000000,imu1_frame,0.0006965052618631267,-0.01573549821463318,0.0013099214958518424,0.9998750887396047,-0.008230972610484359,0.0037441050013415716,-0.007808634118661019,0.03515625,0.0390625,33.37890625
367,564000000,imu1_frame,0.0007660475073307773,-0.01485851425808382,0.00114077320761889,0.9998886619827969,0.005440902389515642,0.07015035500134158,-0.013668009118661019,0.03515625,0.0390625,33.37890625
368,739000000,imu1_frame,0.004010158789891419,0.02597458233467342,-0.006802344509450326,0.999631415977006,0.005440902389515642,0.07015035500134158,-0.013668009118661019,0.19140625,0.0390625,9.6875
368,763000000,imu1_frame,0.003985042812982457,0.02559091226941501,-0.006778001399046207,0.9996415774366493,-0.0004184726104843581,-0.0021152699986584284,0.0019569908813389814,0.19140625,0.0390625,9.6875
368,788000000,imu1_frame,0.004007847643114881,0.025233954402977737,-0.006778240910404289,0.9996505590218107,0.003487777389515642,-0.0001621449986584286,3.865881338981266e-06,0.19140625,0.0390625,9.6875
368,814000000,imu1_frame,0.0040523118704592085,0.024880337321833243,-0.0067780004577209065,0.9996592450895713,0.003487777389515642,-0.0001621449986584286,3.865881338981266e-06,0.19140625,0.078125,9.6875
368,839000000,imu1_frame,0.004094606159333845,0.024530343183859667,-0.0067777106655413375,0.9996677243473535,0.003487777389515642,-0.0001621449986584286,3.865881338981266e-06,0.19140625,0.078125,9.6875
368,864000000,imu1_frame,0.004112971022234947,0.02428065669294567,-0.006776414083765033,0.9996737534776509,0.001534652389515642,0.007650355001341571,3.865881338981266e-06,0.19140625,0.078125,9.6875
368,888000000,imu1_frame,0.004012815725477168,0.0237985107328012,-0.006773255885748718,0.9996857762324922,-0.008230972610484359,-0.011880894998658428,3.865881338981266e-06,0.19140625,0.078125,9.6875
368,914000000,imu1_frame,0.0039054343128616686,0.023309474319100118,-0.006770007320826041,0.9996977458165399,-0.008230972610484359,-0.011880894998658428,3.865881338981266e-06,0.19140625,0.078125,9.6875
368,938000000,imu1_frame,0.003949028393085017,0.023044669394429233,-0.006722541947928933,0.9997040341106014,0.003487777389515642,0.005697230001341571,0.003910115881338981,0.19140625,0.078125,9.6875
368,963000000,imu1_frame,0.003991005939026298,0.02276162079550102,-0.006795274059768915,0.9997098602798761,0.003487777389515642,0.0037441050013415716,-0.005855509118661019,0.19140625,0.078125,9.6875
368,988000000,imu1_frame,0.004010299121161954,0.02243285229176192,-0.006770013344111557,0.9997173858437871,0.001534652389515642,-0.0001621449986584286,0.0019569908813389814,0.19140625,0.078125,9.6875
369,13000000,imu1_frame,0.0040092321106560596,0.02210749948291951,-0.0067452092697930085,0.9997248054721871,0.001534652389515642,-0.0001621449986584286,0.0019569908813389814,0.19140625,0.0390625,9.6875
369,39000000,imu1_frame,0.004009459264775911,0.02186069826031264,-0.006719136115761319,0.9997304073188099,0.001534652389515642,0.005697230001341571,0.0019569908813389814,0.19140625,0.0390625,9.6875
369,64000000,imu1_frame,0.004008600367476882,0.021613247321533652,-0.0066942810795640045,0.9997359577729211,0.0015193058656204855,0.005640257701328155,0.0019374209725255916,0.19140625,0.0390625,9.7265625
369,89000000,imu1_frame,0.003958446246035292,0.021223609992480404,-0.0066689641357375595,0.9997446744042003,-0.0023869441343795147,-0.006078492298671845,0.0019374209725255916,0.19140625,0.0390625,9.7265625
369,114000000,imu1_frame,0.003908953138678175,0.020818560077518367,-0.0066438378353845095,0.9997535531622158,-0.0023630746930357193,-0.006017707375685126,0.0019180467628003356,0.23046875,0.0390625,9.7265625
369,139000000,imu1_frame,0.0038600269026947886,0.02041707841674709,-0.006618728169182217,0.99976218949241,-0.0023630746930357193,-0.006017707375685126,0.0019180467628003356,0.23046875,0.0390625,9.6875
369,164000000,imu1_frame,0.00385971998808802,0.02014029515452063,-0.006642973437026377,0.9997676439936518,0.0015431753069642807,0.003747917624314874,-0.0019882032371996644,0.23046875,0.0390625,9.6875
369,188000000,imu1_frame,0.0038127392572367114,0.019864641500530245,-0.006641845268561577,0.9997733467785789,-0.0023630746930357193,0.003747917624314874,-3.507823719966446e-05,0.23046875,0.0390625,9.6875
369,213000000,imu1_frame,0.0037652006479015044,0.019613741963308957,-0.006640795010746392,0.999778487582076,-0.0023630746930357193,0.003747917624314874,-3.507823719966446e-05,0.19140625,0.0390625,9.6875
369,238000000,imu1_frame,0.003718347833405283,0.0193652802705965,-0.006639769280936621,0.999783513203397,-0.002339443946105362,0.0037104384480717255,-3.472745482766782e-05,0.19140625,0.0390625,9.7265625
369,264000000,imu1_frame,0.0037197296305727227,0.019020906236409566,-0.006665228371564761,0.9997899496735182,0.0015511379933556915,-0.004061040936408992,-0.0019679739302793913,0.19140625,0.0390625,9.7265625
369,289000000,imu1_frame,0.003744722990459699,0.018706160913757982,-0.006665630829496739,0.9997957921291918,0.0034692203634221347,-0.002086836777044902,-1.4700440976597231e-05,0.19140625,0.0390625,9.7265625
369,313000000,imu1_frame,0.0037678349031037154,0.018395207262106764,-0.006665976498542295,0.9998014725570512,0.0034692203634221347,-0.002086836777044902,-1.4700440976597231e-05,0.19140625,0.0390625,9.6875
369,338000000,imu1_frame,0.0037440951816165905,0.018086638193165007,-0.006665462269253194,0.9998071948545267,-0.0004370296365778655,-0.002086836777044902,-1.4700440976597231e-05,0.19140625,0.0390625,9.6875
369,364000000,imu1_frame,0.003720369145110451,0.01778012058183439,-0.006664963864412474,0.9998127846863161,-0.0004370296365778655,-0.002086836777044902,-1.4700440976597231e-05,0.19140625,0.0390625,9.6875
369,388000000,imu1_frame,0.003674127734248748,0.017478882625676297,-0.006664044761235536,0.9998182734652187,-0.0023901546365778653,-0.002086836777044902,-1.4700440976597231e-05,0.19140625,0.0390625,9.6875
369,414000000,imu1_frame,0.0036259683157237573,0.017178604531012935,-0.006663123533403511,0.9998236597945255,-0.0023901546365778653,-0.002086836777044902,-1.4700440976597231e-05,0.19140625,0.0390625,9.6875
369,439000000,imu1_frame,0.0035794798586736504,0.016882351452933323,-0.00666222931236855,0.9998288794758584,-0.0023901546365778653,-0.002086836777044902,-1.4700440976597231e-05,0.19140625,0.0390625,9.6875
369,463000000,imu1_frame,0.0035344910607443976,0.016566883899295764,-0.006661445481979813,0.9998343217128024,-0.0023901546365778653,-0.004039961777044902,-1.4700440976597231e-05,0.19140625,0.0390625,9.6875
369,488000000,imu1_frame,0.003465878045739116,0.016325066100434625,-0.006611190427591502,0.9998388730527128,-0.004343279636577865,0.0018194132229550982,0.003891549559023403,0.19140625,0.0390625,9.6875
369,513000000,imu1_frame,0.0033979425444068162,0.016085666278897112,-0.006560960354861552,0.9998433172882893,-0.004343279636577865,0.0018194132229550982,0.003891549559023403,0.19140625,0.0390625,9.6875
369,538000000,imu1_frame,0.003330677918026327,0.015848660279852777,-0.006510755035959463,0.9998476567061615,-0.004343279636577865,0.0018194132229550982,0.003891549559023403,0.19140625,0.0390625,9.6875
369,563000000,imu1_frame,0.003286615274764477,0.015541607662411125,-0.006534435556228274,0.9998524679887852,-0.0023901546365778653,-0.004039961777044902,-0.001967825440976597,0.19140625,0.0390625,9.6875
369,588000000,imu1_frame,0.0032440065065966095,0.015334209455345575,-0.0065333994970267345,0.9998558161721004,-0.0023901546365778653,0.003772538222955098,-1.4700440976597231e-05,0.19140625,0.0390625,9.6875
369,613000000,imu1_frame,0.003201823434112903,0.015128883894892317,-0.006532379342173765,0.9998590866811791,-0.0023901546365778653,0.003772538222955098,-1.4700440976597231e-05,0.19140625,0.0390625,9.6875
369,639000000,imu1_frame,0.003234837697938927,0.014952045922177196,-0.006507034173474875,0.9998618057782157,0.0034692203634221347,0.005725663222955098,0.0019384245590234027,0.19140625,0.0390625,9.6875
369,663000000,imu1_frame,0.003264018291639378,0.014771337010746288,-0.0064835833775250765,0.9998645492935998,0.0034692203634221347,0.005725663222955098,0.0019384245590234027,0.19140625,0.0390625,9.6875
369,688000000,imu1_frame,0.0032216830386926874,0.014523224253449353,-0.006458335729405444,0.999868484659502,-0.0023901546365778653,-0.00013371177704490195,0.0019384245590234027,0.19140625,0.0390625,9.6875
369,714000000,imu1_frame,0.0032790460561235983,0.014377575966806798,-0.006484028357258625,0.9998702368520342,0.005422345363422135,0.007678788222955098,-0.001967825440976597,0.19140625,0.0390625,9.6875
369,739000000,imu1_frame,0.0033331450703128797,0.014229596286223016,-0.006508692141278301,0.9998720146399146,0.005422345363422135,0.007678788222955098,-0.001967825440976597,0.19140625,0.0390625,9.6875
369,763000000,imu1_frame,0.003431349354771024,0.014171730604404789,-0.006509242317027182,0.9998725007008343,0.009328595363422135,0.015491288222955098,-1.4700440976597231e-05,0.19140625,0.0390625,9.6875
369,788000000,imu1_frame,0.003387420549844202,0.014050606165237166,-0.006532407636721907,0.9998742088377296,-0.0023901546365778653,0.009631913222955098,-0.001967825440976597,0.19140625,0.0390625,9.6875
369,814000000,imu1_frame,0.003342993146074125,0.013934624404821051,-0.006556294353162116,0.9998758251122369,-0.002366253090212087,0.009535594090725547,-0.0019481471865668313,0.19140625,0.0390625,9.7265625
369,838000000,imu1_frame,0.0033216738584810977,0.013829993147693408,-0.00657809045929541,0.9998772057098921,-0.002366253090212087,0.009535594090725547,-0.0019481471865668313,0.15234375,0.078125,9.69140625
369,863000000,imu1_frame,0.00327447326200785,0.01356204759236595,-0.006576666637999068,0.9998810409973236,-0.0043193780902120865,-0.004136280909274453,4.977813433168742e-06,0.15234375,0.078125,9.69140625
369,888000000,imu1_frame,0.0032524117656718,0.013272297339952189,-0.006526856107197732,0.9998853274702967,-0.002366253090212087,-0.006089405909274453,0.003911227813433169,0.15234375,0.078125,9.69140625
369,914000000,imu1_frame,0.0032089979236096834,0.012942235683667947,-0.006475247167707914,0.9998901299852658,-0.002366253090212087,-0.006089405909274453,0.003911227813433169,0.23046875,0.0390625,9.6875
369,939000000,imu1_frame,0.003166545085713931,0.012618640535952947,-0.00647443904666518,0.9998944066961649,-0.002366253090212087,-0.006089405909274453,4.977813433168742e-06,0.23046875,0.0390625,9.6875
369,963000000,imu1_frame,0.003145865773515297,0.012301159327013056,-0.0064734016732907905,0.9998984348815249,-0.002366253090212087,-0.006089405909274453,4.977813433168742e-06,0.23046875,0.078125,9.6875
369,988000000,imu1_frame,0.0031978002859828734,0.012152548233571455,-0.006472727000176116,0.9999000917341407,0.003493121909787913,0.007582469090725547,4.977813433168742e-06,0.23046875,0.078125,9.6875
370,13000000,imu1_frame,0.0032248915205543758,0.011981411426987587,-0.006471825484636637,0.9999020758703296,0.001539996909787913,0.005629344090725547,4.977813433168742e-06,0.23046875,0.078125,9.6875
370,38000000,imu1_frame,0.00323168150237381,0.01183225577677506,-0.006471227968093365,0.999903833959289,0.001539996909787913,0.005629344090725547,4.977813433168742e-06,0.19140625,0.0390625,9.6875
370,63000000,imu1_frame,0.0032869197024259374,0.01175685894961682,-0.006495375711223187,0.9999043866894869,0.0054462469097879135,0.011488719090725547,-0.0019481471865668313,0.19140625,0.0390625,9.6875
370,88000000,imu1_frame,0.0032931162047170563,0.011658361364713397,-0.006519017815509104,0.9999053657235134,0.001539996909787913,0.009535594090725547,-0.0019481471865668313,0.19140625,0.0390625,9.6875
370,113000000,imu1_frame,0.003319412974911423,0.011560719553152476,-0.006542420201856381,0.9999062596057782,0.001539996909787913,0.009535594090725547,-0.0019481471865668313,0.19140625,0.078125,9.6875
370,139000000,imu1_frame,0.0033461003328126584,0.011448626716012131,-0.006566721308255194,0.9999073010685241,0.001539996909787913,0.009535594090725547,-0.0019481471865668313,0.23046875,0.078125,9.6875
370,163000000,imu1_frame,0.0033712279936481716,0.011328141075807636,-0.006565649390613353,0.9999085959674819,0.001539996909787913,0.009535594090725547,4.977813433168742e-06,0.23046875,0.078125,9.6875
370,189000000,imu1_frame,0.003397936860250509,0.011258613779813869,-0.006564684627145484,0.9999092971647963,0.001539996909787913,0.009535594090725547,4.977813433168742e-06,0.15234375,0.078125,9.69140625
370,213000000,imu1_frame,0.0034023876567883214,0.011140155647986037,-0.006563834325650515,0.9999106143897649,0.001539996909787913,0.009535594090725547,4.977813433168742e-06,0.23046875,0.0390625,9.6875
370,238000000,imu1_frame,0.003480407928399283,0.011075456089905185,-0.006563612674116072,0.9999110660562353,0.0073993719097879135,0.013441844090725547,4.977813433168742e-06,0.23046875,0.0390625,9.6875
370,263000000,imu1_frame,0.0035579006367312447,0.011051729074377402,-0.006563502140680913,0.9999110565781214,0.0073993719097879135,0.013441844090725547,4.977813433168742e-06,0.15234375,0.0390625,9.69140625
370,288000000,imu1_frame,0.0035610045444308893,0.010859540301845452,-0.006563178283788279,0.9999131533897744,0.001539996909787913,-0.00023003090927445292,4.977813433168742e-06,0.15234375,0.0390625,9.69140625
370,313000000,imu1_frame,0.003515582937712887,0.0106454220319776,-0.006562414843583523,0.9999156216290402,-0.002366253090212087,-0.002183155909274453,4.977813433168742e-06,0.15234375,0.0390625,9.69140625
370,338000000,imu1_frame,0.003470709015116124,0.010413928154447432,-0.006561601154198873,0.9999182214909476,-0.002342590559309966,-0.0021613243501817083,4.928035298837054e-06,0.19140625,0.0390625,9.7265625
370,364000000,imu1_frame,0.0035018408563375313,0.010384269187094683,-0.006560867710388991,0.9999184262123354,0.003516784440690034,0.01346367564981829,4.928035298837054e-06,0.19140625,0.0390625,9.7265625
370,389000000,imu1_frame,0.003505757390080005,0.010203404623542658,-0.006560397582232401,0.9999202775135492,0.001563659440690034,0.0017449256498182917,4.928035298837054e-06,0.19140625,0.0390625,9.7265625
370,414000000,imu1_frame,0.003509713071076482,0.010023951026339618,-0.0065599244279610286,0.9999220818201185,0.001563659440690034,0.0017449256498182917,4.928035298837054e-06,0.19140625,0.0390625,9.6875
370,438000000,imu1_frame,0.0035330085488969776,0.009845304103433839,-0.006559244809254656,0.9999237791678107,0.001563659440690034,0.0017449256498182917,4.928035298837054e-06,0.19140625,0.078125,9.6875
370,464000000,imu1_frame,0.00360872454012932,0.00979550484503407,-0.0065586113327978195,0.999924002016858,0.005469909440690034,0.01151055064981829,4.928035298837054e-06,0.19140625,0.078125,9.6875
370,489000000,imu1_frame,0.003631492596250208,0.009571663837864286,-0.006558104205385216,0.9999260906597695,0.001563659440690034,-0.0021613243501817083,4.928035298837054e-06,0.19140625,0.078125,9.6875
370,513000000,imu1_frame,0.0036328444783569587,0.009351918840348326,-0.006557784036598668,0.9999281671817877,0.0015480228462831337,-0.0021397111066798914,4.878754945848684e-06,0.19140625,0.0390625,9.7265625
370,539000000,imu1_frame,0.003661587895830777,0.009282978163919908,-0.006582548387146671,0.9999285420204886,0.0035011478462831334,0.009579038893320109,-0.0019482462450541513,0.19140625,0.0390625,9.7265625
370,564000000,imu1_frame,0.003708776127921874,0.009249791795372131,-0.006606283932528926,0.9999285191172307,0.0035011478462831334,0.009579038893320109,-0.0019482462450541513,0.11328125,0.078125,9.69140625
370,588000000,imu1_frame,0.003683800456724511,0.009096485026034546,-0.006581959906129044,0.999930178251542,-0.0023582271537168666,-0.0001865861066798913,0.0019580037549458487,0.11328125,0.078125,9.69140625
370,613000000,imu1_frame,0.0037307362621989554,0.008992482902388934,-0.006557138382148005,0.9999311080241626,0.0035011478462831334,0.0037196638933201086,0.0019580037549458487,0.11328125,0.078125,9.69140625
370,639000000,imu1_frame,0.003778824009104501,0.008871202823032961,-0.006531267261275699,0.9999321800990019,0.0035011478462831334,0.0037196638933201086,0.0019580037549458487,0.15234375,0.078125,9.69140625
370,663000000,imu1_frame,0.0038231683615750477,0.008817175464334012,-0.00653049787200288,0.9999324944205255,0.0035011478462831334,0.009579038893320109,4.878754945848684e-06,0.15234375,0.078125,9.69140625
370,689000000,imu1_frame,0.0037943711104151973,0.00864796533700561,-0.006529533076158646,0.9999340881484208,-0.0023582271537168666,-0.0001865861066798913,4.878754945848684e-06,0.15234375,0.078125,9.69140625
370,713000000,imu1_frame,0.0037681972950742372,0.00848061629872078,-0.006528606489447796,0.9999356264948486,-0.0023582271537168666,-0.0001865861066798913,4.878754945848684e-06,0.15234375,0.078125,9.69140625
370,738000000,imu1_frame,0.003741247558235606,0.008335000663839711,-0.006527754148706185,0.9999369576410385,-0.0023582271537168666,-0.0001865861066798913,4.878754945848684e-06,0.11328125,0.078125,9.69140625
370,763000000,imu1_frame,0.0036899253466696666,0.008118493223021906,-0.006526987980535966,0.9999389346088219,-0.0043113521537168666,-0.006045961106679891,4.878754945848684e-06,0.11328125,0.078125,9.69140625
370,789000000,imu1_frame,0.003687725304784075,0.007976249177836599,-0.006526357701793084,0.9999400915986306,-0.00040510215371686634,-0.0001865861066798913,4.878754945848684e-06,0.11328125,0.078125,9.69140625
370,814000000,imu1_frame,0.003665466578366482,0.007815501598881603,-0.006525826988298063,0.9999414462215472,-0.00040510215371686634,-0.0001865861066798913,4.878754945848684e-06,0.15234375,0.0390625,9.69140625
370,839000000,imu1_frame,0.003643430307208706,0.007656361097114777,-0.006525301691919864,0.999942761355957,-0.00040510215371686634,-0.0001865861066798913,4.878754945848684e-06,0.15234375,0.0390625,9.69140625
370,863000000,imu1_frame,0.003642097070318949,0.007518919537035002,-0.0065247015249223165,0.9999438130454814,-0.00040510215371686634,-0.0001865861066798913,4.878754945848684e-06,0.11328125,0.078125,9.69140625
370,889000000,imu1_frame,0.0036403748914504903,0.007382670020085247,-0.006524100186732802,0.9999448384639914,-0.00040510215371686634,-0.0001865861066798913,4.878754945848684e-06,0.11328125,0.078125,9.69140625
370,914000000,imu1_frame,0.003638630994205766,0.007228067347801503,-0.006523440391651544,0.9999459786070246,-0.00040105113217969767,-0.0001847202456130924,4.829967396390197e-06,0.15234375,0.078125,9.73046875
370,938000000,imu1_frame,0.0036373937770405908,0.007094929784040512,-0.006522859951258107,0.9999469404103033,-0.00040105113217969767,-0.0001847202456130924,4.829967396390197e-06,0.11328125,0.078125,9.69140625
370,963000000,imu1_frame,0.003635969771062005,0.00696303321593874,-0.006522281876018376,0.9999478765072645,-0.00040105113217969767,-0.0001847202456130924,4.829967396390197e-06,0.11328125,0.078125,9.69140625
370,989000000,imu1_frame,0.003634360844637238,0.006832365241091179,-0.006521706177461567,0.9999487874661374,-0.00040105113217969767,-0.0001847202456130924,4.829967396390197e-06,0.11328125,0.078125,9.69140625
371,14000000,imu1_frame,0.0036327265253940115,0.00668328696939115,-0.006521071479014866,0.9999498050402541,-0.0003970406208579007,-0.00018287304315696147,4.781667722426295e-06,0.15234375,0.078125,9.73046875
371,339000000,imu1_frame,0.004501639259153615,0.006193192876145664,-0.006841014688093927,0.9999472886727663,0.005407711035350678,-0.002114638062725392,-0.001928859898954798,0.15234375,0.078125,9.73046875
371,363000000,imu1_frame,0.004467615003424811,0.005982004151674083,-0.006817081709172741,0.9999488904136457,-0.0023807410750028286,-0.005960679182098138,0.00195761620003475,0.15234375,0.078125,9.73046875
371,389000000,imu1_frame,0.004507693077502887,0.005942802752205435,-0.006867035136919233,0.999948602492646,0.0034786339249971714,0.007711195817901862,-0.00390175879996525,0.15234375,0.078125,9.73046875
371,414000000,imu1_frame,0.004545796590570692,0.005899860937842643,-0.0069150353357487065,0.9999483534966078,0.0034786339249971714,0.007711195817901862,-0.00390175879996525,0.15234375,0.078125,9.69140625
371,439000000,imu1_frame,0.004485943379004309,0.005664338356525898,-0.006890117129375784,0.9999501576923355,-0.004333866075002828,-0.007913804182098139,0.00195761620003475,0.15234375,0.078125,9.69140625
371,463000000,imu1_frame,0.004428853587123275,0.005435078160064744,-0.006866192411945659,0.999951849132277,-0.004333866075002828,-0.007913804182098139,0.00195761620003475,0.15234375,0.078125,9.69140625
371,488000000,imu1_frame,0.004394433285408447,0.005276863068340224,-0.006914357072925646,0.9999525165419236,-0.0023807410750028286,-0.0020544291820981378,-0.00390175879996525,0.15234375,0.078125,9.69140625
371,513000000,imu1_frame,0.004360236335847011,0.005100044516314679,-0.006962447714359022,0.9999532500106453,-0.0023807410750028286,-0.0020544291820981378,-0.00390175879996525,0.19140625,0.078125,9.6875
371,538000000,imu1_frame,0.004326507907440574,0.004945174840420416,-0.007010639026640115,0.9999538376923021,-0.0023807410750028286,-0.0020544291820981378,-0.00390175879996525,0.15234375,0.078125,9.69140625
371,564000000,imu1_frame,0.0042405949891389134,0.004640389850068166,-0.007061210036876067,0.9999553107259307,-0.006286991075002828,-0.013773179182098139,-0.00390175879996525,0.15234375,0.078125,9.69140625
371,589000000,imu1_frame,0.004207732840306828,0.004441771351551853,-0.0071096481941372225,0.999956008309446,-0.0023807410750028286,-0.005960679182098138,-0.00390175879996525,0.15234375,0.078125,9.69140625
371,613000000,imu1_frame,0.004176409411014041,0.004248070591760177,-0.0071561418668404176,0.9999566496275031,-0.0023807410750028286,-0.005960679182098138,-0.00390175879996525,0.15234375,0.078125,9.69140625
371,638000000,imu1_frame,0.0041442075887701615,0.004034318171724067,-0.007204037372216708,0.999957324922364,-0.0023569336642528,-0.005901072390277156,-0.0038627412119655977,0.19140625,0.078125,9.7265625
371,663000000,imu1_frame,0.004064355555472436,0.0037518917645986034,-0.007227407499856143,0.9999585835938088,-0.006200551827610272,-0.011642842916374385,-0.0018905200498459415,0.19140625,0.078125,9.7265625
371,689000000,imu1_frame,0.0039828178906437944,0.003443158196013658,-0.007251618451651897,0.9999598471204326,-0.006138546309334169,-0.01346000823721064,-0.001871614849347482,0.19140625,0.078125,9.7265625
371,714000000,imu1_frame,0.0039054751934097386,0.003163933171145339,-0.007274982936765877,0.9999609049426242,-0.006138546309334169,-0.01346000823721064,-0.001871614849347482,0.15234375,0.078125,9.69140625
371,738000000,imu1_frame,0.0038320531699928785,0.002870664398669878,-0.007227202552392367,0.9999624203927263,-0.006138546309334169,-0.01541313323721064,0.003987760150652518,0.15234375,0.078125,9.69140625
371,763000000,imu1_frame,0.0038295851888137,0.002693127744460435,-0.007201619921606711,0.9999631083248715,-0.00027917130933416954,-0.005647508237210641,0.0020346351506525177,0.15234375,0.078125,9.69140625
371,788000000,imu1_frame,0.003803454247456104,0.002565696214776046,-0.007126965692290717,0.9999640780041761,-0.0022322963093341693,-0.0017412582372106412,0.005940885150652518,0.15234375,0.078125,9.69140625
371,813000000,imu1_frame,0.003757299267937813,0.0024194969418209903,-0.007052298156635077,0.9999651463063449,-0.0022322963093341693,-0.0017412582372106412,0.005940885150652518,0.19140625,0.0390625,9.6875
371,838000000,imu1_frame,0.0037318857325091053,0.0022948085222790258,-0.0069776661058168965,0.9999660589532234,-0.0022322963093341693,-0.0017412582372106412,0.005940885150652518,0.15234375,0.078125,9.69140625
371,864000000,imu1_frame,0.0037053257493005025,0.0021455542886311242,-0.006950949516763906,0.9999666751740788,-0.0022322963093341693,-0.003694383237210641,0.0020346351506525177,0.15234375,0.078125,9.69140625
371,889000000,imu1_frame,0.003753829695109976,0.002168298068775696,-0.0069247679098121346,0.9999666268608669,0.0036270786906658307,0.00997749176278936,0.0020346351506525177,0.15234375,0.078125,9.69140625
371,913000000,imu1_frame,0.0037995552263589516,0.0022050943725553853,-0.006899933934825558,0.9999665453656862,0.003590807903759172,0.009877716845161465,0.002014288799145993,0.11328125,0.078125,9.73046875
371,938000000,imu1_frame,0.003846658310346535,0.002226014132688485,-0.006873991687795013,0.999966497598395,0.003590807903759172,0.009877716845161465,0.002014288799145993,0.15234375,0.078125,9.69140625
371,963000000,imu1_frame,0.0038446192404076305,0.0021987197484402486,-0.00684812496648767,0.9999667433064,-0.00031544209624082784,0.005971466845161465,0.002014288799145993,0.15234375,0.078125,9.69140625
371,988000000,imu1_frame,0.0038912142663776535,0.0022197984808128464,-0.006846586816876857,0.9999665270373788,0.003590807903759172,0.009877716845161465,6.116379914599272e-05,0.15234375,0.078125,9.69140625
372,38000000,imu1_frame,0.003982616822358708,0.0023625921072378594,-0.006843885474620733,0.9999658584938744,0.003590807903759172,0.009877716845161465,6.116379914599272e-05,0.15234375,0.078125,9.69140625
372,964000000,imu1_frame,0.005659417581469042,0.0067761532706149775,-0.006800485480578479,0.999937902140288,0.003590807903759172,0.009877716845161465,6.116379914599272e-05,0.15234375,0.078125,9.69140625
373,88000000,imu1_frame,0.00586727502531087,0.007254423422102638,-0.00679410171298023,0.9999333920849448,0.003590807903759172,0.009877716845161465,6.116379914599272e-05,0.11328125,0.078125,9.69140625
373,113000000,imu1_frame,0.005893172928839452,0.007244114569504337,-0.006792318364178532,0.9999333266414189,0.0035548998247215803,0.00977893967670985,6.055216115453279e-05,0.11328125,0.078125,9.73046875
373,138000000,imu1_frame,0.005845321588519368,0.007089391295121886,-0.006790872924039391,0.9999347262654305,-0.0023044751752784197,-0.0019398103232901494,6.055216115453279e-05,0.11328125,0.078125,9.73046875
373,164000000,imu1_frame,0.005797779205324906,0.00691299430375727,-0.006789271428464363,0.9999362489976614,-0.0023044751752784197,-0.0019398103232901494,6.055216115453279e-05,0.15234375,0.078125,9.46484375
373,764000000,imu1_frame,0.00800829505076662,0.008492028028944918,-0.006775347885417202,0.9999089195178564,0.00746114982472158,0.005872689676709851,6.055216115453279e-05,0.15234375,0.078125,9.46484375
373,838000000,imu1_frame,0.008242885739960012,0.008561636446629745,-0.00677288837317151,0.999906436222469,0.00746114982472158,0.005872689676709851,6.055216115453279e-05,0.11328125,0.078125,9.69140625
373,888000000,imu1_frame,0.008385888786584713,0.008541249477966613,-0.006770762365308061,0.9999054358806171,0.00746114982472158,0.005872689676709851,6.055216115453279e-05,0.15234375,0.078125,9.69140625
373,914000000,imu1_frame,0.008438352950525103,0.008451911646696932,-0.006769163800153731,0.9999057644650547,0.00746114982472158,0.005872689676709851,6.055216115453279e-05,0.15234375,0.078125,9.69140625
373,939000000,imu1_frame,0.008413706664363856,0.008337111818360554,-0.006791581272225756,0.9999067839206398,0.0016017748247215803,0.003919564676709851,-0.0018925728388454672,0.15234375,0.078125,9.69140625
373,963000000,imu1_frame,0.008368492979735116,0.00824179519348467,-0.006813406645635562,0.9999078050636059,0.0016017748247215803,0.003919564676709851,-0.0018925728388454672,0.11328125,0.0390625,9.69140625
373,989000000,imu1_frame,0.008363615469187801,0.00815105835260884,-0.006836787527472418,0.9999084300676339,0.0016017748247215803,0.003919564676709851,-0.0018925728388454672,0.11328125,0.11328125,9.69140625
374,14000000,imu1_frame,0.008235432411604184,0.0077211591003085445,-0.006787890319224522,0.9999132391863585,-0.008163850175278419,-0.02342418532329015,0.003966802161154533,0.11328125,0.11328125,9.69140625
374,38000000,imu1_frame,0.008075249956052454,0.007310410810529788,-0.006741700155296498,0.999917945489001,-0.008082211673525635,-0.023189943470057248,0.003927134139542987,0.11328125,0.0390625,9.73046875
374,64000000,imu1_frame,0.007985081205251625,0.007132284673466855,-0.006766387367246306,0.9999197892808596,-0.002222836673525635,-0.0036586934700572477,-0.0019322408604570125,0.11328125,0.0390625,9.73046875
374,88000000,imu1_frame,0.007918151017363297,0.006939013882948355,-0.006788832480257631,0.9999215292833501,-0.002222836673525635,-0.0036586934700572477,-0.0019322408604570125,0.15234375,0.078125,9.69140625
374,113000000,imu1_frame,0.007830955734763006,0.006766842130640908,-0.006812322802069772,0.9999232361726071,-0.002200608306790379,-0.0036221065353566756,-0.0019129184518524424,0.11328125,0.0390625,9.73046875
374,138000000,imu1_frame,0.0077447130030598,0.006596154671377918,-0.006835819795962707,0.9999248880449815,-0.002200608306790379,-0.0036221065353566756,-0.0019129184518524424,0.11328125,0.0390625,9.69140625
374,163000000,imu1_frame,0.007659333935337505,0.006427171802493364,-0.006859325778506026,0.9999264851558602,-0.002200608306790379,-0.0036221065353566756,-0.0019129184518524424,0.11328125,0.0390625,9.69140625
374,188000000,imu1_frame,0.007594960763254556,0.006259739969105049,-0.006882709961625112,0.9999278776642383,-0.002200608306790379,-0.0036221065353566756,-0.0019129184518524424,0.11328125,0.078125,9.69140625
374,213000000,imu1_frame,0.007511081656305039,0.006094117281703673,-0.006906233411090926,0.9999293721693452,-0.002200608306790379,-0.0036221065353566756,-0.0019129184518524424,0.11328125,0.0390625,9.69140625
374,238000000,imu1_frame,0.00745267514835633,0.005953787869148283,-0.006880904385098038,0.9999308292066934,-0.000247483306790379,-0.0016689815353566754,0.0019933315481475574,0.11328125,0.0390625,9.69140625
374,263000000,imu1_frame,0.007414866523624032,0.005794581480726596,-0.006855310422683282,0.9999322213524818,-0.000247483306790379,-0.0016689815353566754,0.0019933315481475574,0.15234375,0.078125,9.69140625
374,288000000,imu1_frame,0.00737756924267911,0.005657114587162179,-0.006829872929673333,0.9999334584673032,-0.000247483306790379,-0.0016689815353566754,0.0019933315481475574,0.11328125,0.078125,9.69140625
374,314000000,imu1_frame,0.007340692582962549,0.00554532656808512,-0.006803263099200593,0.999934537455757,-0.000247483306790379,0.0002841434646433246,0.0019933315481475574,0.11328125,0.078125,9.69140625
374,338000000,imu1_frame,0.007304163577915844,0.0053940607971725086,-0.006778363796858686,0.9999358014826656,-0.000247483306790379,0.0002841434646433246,0.0019933315481475574,0.19140625,0.078125,9.6875
374,363000000,imu1_frame,0.007267882221546505,0.005244443422068841,-0.006752476082691317,0.9999370369018037,-0.000247483306790379,0.0002841434646433246,0.0019933315481475574,0.19140625,0.078125,9.6875
374,388000000,imu1_frame,0.007232211836581916,0.005136652807191116,-0.006726888475932266,0.9999380275203668,-0.000247483306790379,0.0002841434646433246,0.0019933315481475574,0.11328125,0.078125,9.69140625
374,413000000,imu1_frame,0.007196648006151894,0.004989612596201011,-0.006701018628054948,0.9999392023383031,-0.000247483306790379,0.0002841434646433246,0.0019933315481475574,0.19140625,0.078125,9.6875
374,439000000,imu1_frame,0.007161437515278922,0.004864361762928251,-0.006674304149968091,0.9999402509457592,-0.000247483306790379,0.0002841434646433246,0.0019933315481475574,0.15234375,0.078125,9.69140625
374,463000000,imu1_frame,0.0071501333829363176,0.004810042415493648,-0.00671950842735132,0.9999402918630003,0.001705641693209621,0.006143518464643324,-0.0038660434518524426,0.15234375,0.078125,9.69140625
374,488000000,imu1_frame,0.007119649548777734,0.004759445335531375,-0.006766730711623913,0.9999404330388272,0.001705641693209621,0.006143518464643324,-0.0038660434518524426,0.15234375,0.0390625,9.69140625
374,513000000,imu1_frame,0.007109622941866599,0.004709216209490243,-0.006813858242045141,0.9999404221653279,0.001705641693209621,0.006143518464643324,-0.0038660434518524426,0.15234375,0.078125,9.69140625
374,538000000,imu1_frame,0.007075316584812415,0.004611142720022577,-0.006836811619261014,0.9999409658899484,-0.000247483306790379,0.0022372684646433244,-0.0019129184518524424,0.15234375,0.078125,9.69140625
374,564000000,imu1_frame,0.00706631617945296,0.004489679074046348,-0.006835627239003299,0.9999415903730147,0.001705641693209621,0.0002841434646433246,4.020654814755759e-05,0.15234375,0.078125,9.69140625
374,589000000,imu1_frame,0.007056560363167075,0.004369295225369797,-0.006834462941201304,0.9999422004952987,0.001705641693209621,0.0002841434646433246,4.020654814755759e-05,0.15234375,0.078125,9.69140625
374,614000000,imu1_frame,0.0070227911302937806,0.004274618444929906,-0.006857436187907943,0.999942690163201,-0.000247483306790379,0.0022372684646433244,-0.0019129184518524424,0.15234375,0.078125,9.69140625
374,638000000,imu1_frame,0.006989479514171439,0.004179771813288415,-0.006879469014440706,0.9999431731802509,-0.000247483306790379,0.0022372684646433244,-0.0019129184518524424,0.15234375,0.078125,9.69140625
374,663000000,imu1_frame,0.006980385205717119,0.004062651894035891,-0.006902729093042245,0.9999435591137312,0.001705641693209621,0.0002841434646433246,-0.0019129184518524424,0.15234375,0.078125,9.69140625
374,688000000,imu1_frame,0.006971382720669108,0.003946701378211102,-0.006925991972197509,0.9999439254310185,0.001705641693209621,0.0002841434646433246,-0.0019129184518524424,0.15234375,0.078125,9.69140625
374,713000000,imu1_frame,0.0069624711151249,0.003831908579170035,-0.006949257624196997,0.9999442725927704,0.001705641693209621,0.0002841434646433246,-0.0019129184518524424,0.15234375,0.078125,9.69140625
374,738000000,imu1_frame,0.0069537878986317475,0.003738408475684143,-0.0069726656590475555,0.999944523995975,0.001705641693209621,0.0002841434646433246,-0.0019129184518524424,0.11328125,0.078125,9.69140625
374,763000000,imu1_frame,0.006921023748537604,0.003646010168191753,-0.006995986038425724,0.999944929593363,-0.000247483306790379,0.0002841434646433246,-0.0019129184518524424,0.11328125,0.078125,9.69140625
374,788000000,imu1_frame,0.006888448567075747,0.00353438750877867,-0.007019173988596928,0.9999453927979239,-0.000247483306790379,0.0002841434646433246,-0.0019129184518524424,0.15234375,0.078125,9.69140625
374,814000000,imu1_frame,0.006856214909735263,0.0034441739207128315,-0.0070434620120177665,0.9999457583419217,-0.000247483306790379,0.0002841434646433246,-0.0019129184518524424,0.11328125,0.078125,9.69140625
374,838000000,imu1_frame,0.006871938464499283,0.0034934492470772194,-0.007065034798384371,0.9999453272841451,0.003658766693209621,0.012002893464643324,-0.0019129184518524424,0.11328125,0.078125,9.69140625
374,863000000,imu1_frame,0.00693735079212015,0.0034994863903258463,-0.007088031103345748,0.9999446917575336,0.007565016693209621,0.008096643464643324,-0.0019129184518524424,0.11328125,0.078125,9.69140625
374,889000000,imu1_frame,0.007005738062376365,0.0034893026236095617,-0.007111817758074006,0.9999440816613588,0.007565016693209621,0.008096643464643324,-0.0019129184518524424,0.15234375,0.078125,9.69140625
374,914000000,imu1_frame,0.006996995655260313,0.0034270732408408396,-0.007085919242274978,0.9999445419468493,0.001705641693209621,0.004190393464643324,0.0019933315481475574,0.15234375,0.078125,9.69140625
374,938000000,imu1_frame,0.0069874773575230465,0.0033634066023402152,-0.007061031420777107,0.9999450007332805,0.001705641693209621,0.004190393464643324,0.0019933315481475574,0.15234375,0.078125,9.69140625
374,964000000,imu1_frame,0.00695420100425758,0.0032545823027736666,-0.007059791556168716,0.9999456015832113,-0.000247483306790379,0.0002841434646433246,4.020654814755759e-05,0.15234375,0.078125,9.69140625
374,989000000,imu1_frame,0.006921519038939362,0.003166851495338169,-0.007058719599265031,0.9999461176000531,-0.000247483306790379,0.0002841434646433246,4.020654814755759e-05,0.11328125,0.078125,9.69140625
375,13000000,imu1_frame,0.006889144908817787,0.0030597098722938056,-0.007057536326983703,0.9999466830981121,-0.000247483306790379,0.0002841434646433246,4.020654814755759e-05,0.15234375,0.078125,9.69140625
375,38000000,imu1_frame,0.00685697295329126,0.002953780965424486,-0.007056338711216644,0.9999472311996863,-0.000247483306790379,0.0002841434646433246,4.020654814755759e-05,0.15234375,0.078125,9.69140625
375,64000000,imu1_frame,0.006875905353460249,0.0029494109606408793,-0.0070799616042512515,0.9999469471148147,0.003658766693209621,0.008096643464643324,-0.0019129184518524424,0.15234375,0.078125,9.69140625
375,88000000,imu1_frame,0.006891117381169593,0.0029572272291301803,-0.007101852229590416,0.9999466640792715,0.003658766693209621,0.008096643464643324,-0.0019129184518524424,0.11328125,0.078125,9.69140625
375,113000000,imu1_frame,0.0069078728462470314,0.0029488183542208442,-0.007124535282482965,0.9999464119441914,0.003658766693209621,0.008096643464643324,-0.0019129184518524424,0.15234375,0.078125,9.69140625
375,138000000,imu1_frame,0.006826654366275168,0.0027718341769107403,-0.007123709432275766,0.9999474818656147,-0.004153733306790379,-0.005575231535356676,4.020654814755759e-05,0.15234375,0.078125,9.69140625
375,163000000,imu1_frame,0.006795032872660713,0.002668945329208634,-0.007146941798958225,0.9999478113791797,-0.000247483306790379,0.0002841434646433246,-0.0019129184518524424,0.15234375,0.078125,9.69140625
375,188000000,imu1_frame,0.006763728128260675,0.0025670836529515166,-0.007170181078184508,0.999948123937753,-0.000247483306790379,0.0002841434646433246,-0.0019129184518524424,0.15234375,0.078125,9.69140625
375,213000000,imu1_frame,0.006659601417998854,0.0023699214561886295,-0.007169496400958744,0.9999493144667891,-0.006106858306790379,-0.007528356535356676,4.020654814755759e-05,0.15234375,0.078125,9.69140625
375,239000000,imu1_frame,0.006553609070068479,0.0021911727091331904,-0.007168962798956301,0.9999504262425727,-0.006106858306790379,-0.007528356535356676,4.020654814755759e-05,0.11328125,0.078125,9.69140625
375,264000000,imu1_frame,0.006500518652622302,0.0020655921539189165,-0.007119404533086009,0.9999513941514333,-0.002200608306790379,-0.0036221065353566756,0.003946456548147558,0.11328125,0.078125,9.69140625
375,289000000,imu1_frame,0.006427667097010975,0.0019212633560843635,-0.007069767951960137,0.9999525049840677,-0.002200608306790379,-0.0036221065353566756,0.003946456548147558,0.15234375,0.0390625,9.69140625
375,313000000,imu1_frame,0.0063769308886685565,0.0018001866356319673,-0.007022192658611187,0.9999533903591624,-0.002200608306790379,-0.0036221065353566756,0.003946456548147558,0.11328125,0.078125,9.69140625
375,339000000,imu1_frame,0.006324365491351714,0.0016565813051475594,-0.006970571728237084,0.999954333591936,-0.002200608306790379,-0.0036221065353566756,0.003946456548147558,0.15234375,0.078125,9.69140625
375,363000000,imu1_frame,0.006297845023334877,0.001541196379932306,-0.0069462130768383175,0.9999548549737992,-0.000247483306790379,-0.0016689815353566754,0.0019933315481475574,0.15234375,0.078125,9.69140625
375,389000000,imu1_frame,0.006251057155050793,0.0014052560554676042,-0.0069197834639964425,0.9999555320796393,-0.000247483306790379,-0.0016689815353566754,0.0019933315481475574,0.19140625,0.0390625,9.6875
375,413000000,imu1_frame,0.006225406258287939,0.0013125349452743809,-0.006895565098523128,0.9999559854068122,-0.000247483306790379,-0.0016689815353566754,0.0019933315481475574,0.11328125,0.078125,9.69140625
375,438000000,imu1_frame,0.006248656144080867,0.0012923834104342782,-0.00691878841800132,0.999955706223201,0.003658766693209621,0.004190393464643324,-0.0019129184518524424,0.11328125,0.078125,9.69140625
375,463000000,imu1_frame,0.0061992325808167496,0.0012726334987398751,-0.006893092661254341,0.9999562166379837,-0.002200608306790379,0.004190393464643324,0.0019933315481475574,0.11328125,0.078125,9.69140625
375,488000000,imu1_frame,0.006130015832991558,0.0012330713122189426,-0.006867308068013595,0.9999568703303786,-0.002200608306790379,0.004190393464643324,0.0019933315481475574,0.15234375,0.0390625,9.69140625
375,513000000,imu1_frame,0.006060961078405032,0.0011215472441909711,-0.006866397739462686,0.999957428826182,-0.002200608306790379,-0.0016689815353566754,4.020654814755759e-05,0.15234375,0.0390625,9.69140625
375,538000000,imu1_frame,0.006017039557339938,0.0010596022431038892,-0.006914051174304214,0.9999574332812428,-0.000247483306790379,0.0022372684646433244,-0.0038660434518524426,0.15234375,0.0390625,9.69140625
375,563000000,imu1_frame,0.0059739745497314305,0.001046176717553413,-0.0068881767898515585,0.9999578841945628,-0.000247483306790379,0.006143518464643324,0.0019933315481475574,0.15234375,0.0390625,9.69140625
375,588000000,imu1_frame,0.0059513551673488095,0.0010323086472726322,-0.006862540970859733,0.9999582097477635,-0.0002450084737224752,0.006082083279996891,0.001973398232666082,0.15234375,0.078125,9.73046875
375,614000000,imu1_frame,0.00592902179867307,0.0010212698266310165,-0.006835902149216304,0.9999585362155066,-0.0002450084737224752,0.006082083279996891,0.001973398232666082,0.15234375,0.078125,9.69140625
375,639000000,imu1_frame,0.005907011078846398,0.001007337362172716,-0.006810272225617056,0.9999588554954479,-0.0002450084737224752,0.006082083279996891,0.001973398232666082,0.15234375,0.078125,9.69140625
375,663000000,imu1_frame,0.005955084497604869,0.0010132682522687646,-0.006785577072408582,0.9999587322484212,0.005614366526277525,0.00803520827999689,0.001973398232666082,0.15234375,0.078125,9.69140625
375,688000000,imu1_frame,0.0060046225941981805,0.00102242230035398,-0.0067601196856962404,0.9999585991139714,0.00555822286101475,0.007954856197196922,0.001953664250339421,0.15234375,0.078125,9.73046875
375,714000000,imu1_frame,0.006056738259383396,0.0010552303046518286,-0.006733775620858019,0.9999584284741788,0.00555822286101475,0.007954856197196922,0.001953664250339421,0.11328125,0.078125,9.69140625
375,739000000,imu1_frame,0.00603188052531241,0.0009152498464469016,-0.006733804404708757,0.9999587164544775,-0.00030115213898525045,-0.005717018802803077,5.392503394211961e-07,0.11328125,0.078125,9.69140625
375,763000000,imu1_frame,0.006031087767148652,0.000849087243343272,-0.006756851664474406,0.9999586241374103,0.0016519728610147495,0.00014235619719692248,-0.0019525857496605788,0.11328125,0.078125,9.69140625
375,788000000,imu1_frame,0.006030984777189915,0.0007635082549591566,-0.006780755038855295,0.9999585319596335,0.0016519728610147495,0.00014235619719692248,-0.0019525857496605788,0.15234375,0.078125,9.69140625
375,813000000,imu1_frame,0.006055871476299731,0.000799464374152148,-0.006803935633671057,0.9999581959948475,0.0036050978610147498,0.009907981197196922,-0.0019525857496605788,0.15234375,0.078125,9.69140625
375,838000000,imu1_frame,0.006031248514627697,0.0006899386684079863,-0.006754730013946444,0.9999587599738438,-0.00030115213898525045,-0.0018107688028030774,0.003906789250339421,0.15234375,0.078125,9.69140625
375,863000000,imu1_frame,0.005982665202199696,0.0005819639605659144,-0.006754341607135368,0.9999591231167807,-0.0022542771389852502,-0.0018107688028030774,5.392503394211961e-07,0.15234375,0.078125,9.69140625
375,889000000,imu1_frame,0.005933580918027489,0.0004943275360870297,-0.006754087585509852,0.9999594644577668,-0.0022542771389852502,-0.0018107688028030774,5.392503394211961e-07,0.11328125,0.078125,9.69140625
375,913000000,imu1_frame,0.005887231155806938,0.0004093449435526505,-0.006753831996662816,0.9999597785408152,-0.0022542771389852502,-0.0018107688028030774,5.392503394211961e-07,0.11328125,0.078125,9.69140625
375,939000000,imu1_frame,0.005838965814564766,0.00030328719752792724,-0.006753475232200556,0.9999601017377545,-0.0022542771389852502,-0.0018107688028030774,5.392503394211961e-07,0.15234375,0.078125,9.69140625
375,964000000,imu1_frame,0.005865628122659027,0.0003195339236065375,-0.006752422425389192,0.9999599477460023,0.0036050978610147498,0.007954856197196922,5.392503394211961e-07,0.15234375,0.078125,9.69140625
375,989000000,imu1_frame,0.0058922808686499364,0.0003739001913672248,-0.006751591061928586,0.99995977781256,0.0036050978610147498,0.007954856197196922,5.392503394211961e-07,0.078125,0.078125,9.69140625
376,763000000,imu1_frame,0.007275095744593844,0.003367864532394162,-0.006733295006853959,0.9999451951025862,0.0036050978610147498,0.007954856197196922,5.392503394211961e-07,0.078125,0.078125,9.69140625
376,788000000,imu1_frame,0.007305668606909056,0.003373496217743221,-0.00673208757493562,0.9999449613485526,0.0036050978610147498,0.007954856197196922,5.392503394211961e-07,0.11328125,0.11328125,9.69140625
376,814000000,imu1_frame,0.007236020445237546,0.00320772639845501,-0.0067318236451084845,0.9999460150677535,-0.00420740213898525,-0.005717018802803077,5.392503394211961e-07,0.11328125,0.11328125,9.69140625
