timestamp_sec,timestamp_nsec,frame_id,orientation_x,orientation_y,orientation_z,orientation_w,angular_velocity_x,angular_velocity_y,angular_velocity_z,linear_acceleration_x,linear_acceleration_y,linear_acceleration_z
83,111000000,imu2_frame,-0.005092817736335334,-0.030336091094424256,-0.028192008327381075,0.9991291185082558,0.00013671875,0.0001171875,0.00177734375,0.57421875,-0.11328125,9.42578125
83,131000000,imu2_frame,-0.0050910039509797726,-0.03033324405878682,-0.028181126111856594,0.9991295211906757,0.00013671875,0.0001171875,0.00177734375,0.57421875,-0.078125,9.4609375
83,151000000,imu2_frame,-0.005088581264264619,-0.030349941357406852,-0.028208927643181534,0.9991282419196952,0.00013671875,-0.0018359375,-0.00212890625,0.57421875,-0.078125,9.4609375
83,171000000,imu2_frame,-0.005086184075164233,-0.030366471516003076,-0.028236485971556004,0.999126973411888,0.00013671875,-0.0018359375,-0.00212890625,0.57421875,-0.078125,9.4609375
83,191000000,imu2_frame,-0.005102332243497985,-0.030382308590285477,-0.02826299994624418,0.9991256599469559,0.00013671875,-0.0018359375,-0.00212890625,0.57421875,-0.11328125,9.4609375
83,211000000,imu2_frame,-0.005118566949608235,-0.030399108415617063,-0.028289042602789114,0.9991243288743077,0.00013671875,-0.0018359375,-0.00212890625,0.57421875,-0.11328125,9.42578125
83,231000000,imu2_frame,-0.005135220738697051,-0.030415642520617996,-0.02829528985578351,0.999123563314368,0.00013671875,-0.0018359375,-0.00017578125,0.57421875,-0.11328125,9.42578125
83,251000000,imu2_frame,-0.005151447718701285,-0.03043089189592385,-0.02830126748654252,0.9991228461322837,0.00013671875,-0.0018359375,-0.00017578125,0.57421875,-0.11328125,9.4609375
83,271000000,imu2_frame,-0.005148986180853949,-0.030446518156751406,-0.028307781791889815,0.9991221982137435,0.00013671875,-0.0018359375,-0.00017578125,0.57421875,-0.078125,9.4609375
83,291000000,imu2_frame,-0.005146550251272235,-0.030461988028847614,-0.02831425864858118,0.9991215556993168,0.00013671875,-0.0018359375,-0.00017578125,0.57421875,-0.078125,9.4609375
83,311000000,imu2_frame,-0.005162862521178237,-0.030476856233869087,-0.028340376081907984,0.9991202776283862,-0.0018164062499999999,-0.0018359375,-0.00212890625,0.57421875,-0.078125,9.4609375
83,331000000,imu2_frame,-0.005197525652275525,-0.030491047064501623,-0.028365226424384143,0.9991189597369764,-0.0018164062499999999,-0.0018359375,-0.00212890625,0.57421875,-0.11328125,9.4609375
83,351000000,imu2_frame,-0.005213309090118097,-0.030505627995758497,-0.028390201668542586,0.9991177230527617,-0.0018164062499999999,-0.0018359375,-0.00212890625,0.57421875,-0.078125,9.4609375
83,371000000,imu2_frame,-0.005247448777747588,-0.03051953350360819,-0.028413927068338236,0.9991164452177745,-0.0018164062499999999,-0.0018359375,-0.00212890625,0.57421875,-0.11328125,9.4609375
83,391000000,imu2_frame,-0.0052625125017377854,-0.03053374910694655,-0.02841731039542352,0.9991158354252689,0.00013671875,-0.0018359375,-0.00017578125,0.57421875,-0.11328125,9.4609375
83,411000000,imu2_frame,-0.00527741972582434,-0.03054782349837129,-0.028420466112949676,0.9991152368102854,0.00013671875,-0.0018359375,-0.00017578125,0.57421875,-0.11328125,9.4609375
83,431000000,imu2_frame,-0.005292172065109211,-0.03056175809019975,-0.028423398453104407,0.9991146492158173,0.00013671875,-0.0018359375,-0.00017578125,0.57421875,-0.11328125,9.4609375
83,451000000,imu2_frame,-0.005288664830132056,-0.030578590385964263,-0.028426910687814784,0.9991140528403496,0.00013671875,-0.0018359375,-0.00017578125,0.57421875,-0.078125,9.3828125
83,471000000,imu2_frame,-0.005244923481518644,-0.030538394283280992,-0.028430083237402582,0.9991154225710793,0.00404296875,0.0040234375,-0.00017578125,0.57421875,-0.078125,9.3828125
83,491000000,imu2_frame,-0.005201408281571745,-0.03049721423934611,-0.028433793970828194,0.9991168022988866,0.00404296875,0.0040234375,-0.00017578125,0.57421875,-0.078125,9.42578125
83,511000000,imu2_frame,-0.005158307329702979,-0.03047310355781398,-0.02843809804112745,0.999117638921889,0.00404296875,0.0040234375,-0.00017578125,0.61328125,-0.078125,9.54296875
83,531000000,imu2_frame,-0.00515534007971106,-0.03043282378002137,-0.028441127559475716,0.999118795723803,0.00404296875,0.0040234375,-0.00017578125,0.57421875,-0.15234375,9.3828125
83,551000000,imu2_frame,-0.005172814469627271,-0.030431035680289313,-0.028444297402849403,0.9991186696299624,0.00208984375,0.0001171875,-0.00017578125,0.57421875,-0.15234375,9.3828125
83,571000000,imu2_frame,-0.005150687520411916,-0.03043039709808832,-0.028448929422994367,0.9991186715126514,0.00208984375,0.0001171875,-0.00017578125,0.57421875,-0.078125,9.3828125
83,591000000,imu2_frame,-0.005146338745122608,-0.030424267067427884,-0.02845301394414545,0.9991187642960293,0.00208984375,0.0001171875,-0.00017578125,0.57421875,-0.11328125,9.5390625
83,611000000,imu2_frame,-0.005124486842244628,-0.030423694666370744,-0.028457897577759957,0.9991187549550379,0.00208984375,0.0001171875,-0.00017578125,0.57421875,-0.078125,9.3828125
83,631000000,imu2_frame,-0.005102633523809617,-0.030421743667232944,-0.02846301370413154,0.9991187804731955,0.00208984375,0.0001171875,-0.00017578125,0.57421875,-0.078125,9.42578125
83,651000000,imu2_frame,-0.005099595972723562,-0.03041927751772525,-0.02846754925112517,0.9991187418499613,0.00208984375,0.0001171875,-0.00017578125,0.57421875,-0.11328125,9.42578125
83,671000000,imu2_frame,-0.005077815910864921,-0.03041624705266705,-0.028472890919089153,0.9991187928287186,0.00208984375,0.0001171875,-0.00017578125,0.57421875,-0.078125,9.4609375
83,691000000,imu2_frame,-0.005056447371298812,-0.030414367935065773,-0.028478452510814555,0.9991187998960288,0.00208984375,0.0001171875,-0.00017578125,0.57421875,-0.078125,9.42578125
83,711000000,imu2_frame,-0.00505461220385276,-0.030411956912211678,-0.028484573163174837,0.9991187080942635,0.00013671875,0.0001171875,-0.00017578125,0.57421875,-0.078125,9.42578125
83,731000000,imu2_frame,-0.005053024558633499,-0.030410952932433667,-0.028490654297402485,0.9991185732946101,0.00013671875,0.0001171875,-0.00017578125,0.57421875,-0.078125,9.3828125
83,751000000,imu2_frame,-0.005051039737031948,-0.030407453567385355,-0.02849670562952377,0.9991185172607835,0.00013671875,0.0001171875,-0.00017578125,0.57421875,-0.078125,9.4609375
83,771000000,imu2_frame,-0.005067595598744146,-0.03040345706597608,-0.028501921410275778,0.9991184062708521,0.00013671875,0.0001171875,-0.00017578125,0.57421875,-0.11328125,9.4609375
83,791000000,imu2_frame,-0.0050839796421489015,-0.03039950143066031,-0.028506880375890182,0.9991183019217496,0.00013671875,0.0001171875,-0.00017578125,0.57421875,-0.11328125,9.4609375
83,811000000,imu2_frame,-0.005081859012378597,-0.030397240740748326,-0.02851238692726018,0.9991182243638826,0.00013671875,0.0001171875,-0.00017578125,0.57421875,-0.078125,9.42578125
83,831000000,imu2_frame,-0.005079575112066803,-0.030393880250869476,-0.028517871722348428,0.9991181816744225,0.00013671875,0.0001171875,-0.00017578125,0.57421875,-0.078125,9.4609375
83,851000000,imu2_frame,-0.0050778752353863475,-0.030410965077097316,-0.02852338781947252,0.9991175129750621,0.00013671875,0.0001171875,-0.00017578125,0.61328125,-0.078125,9.46484375
83,871000000,imu2_frame,-0.005076193001155714,-0.030427878972330374,-0.02852886583588198,0.9991168501531632,0.00013671875,0.0001171875,-0.00017578125,0.61328125,-0.078125,9.46484375
83,891000000,imu2_frame,-0.005074153158231078,-0.030425334083333064,-0.028534248279653552,0.9991167843104026,0.00013671875,0.0001171875,-0.00017578125,0.57421875,-0.078125,9.42578125
83,911000000,imu2_frame,-0.005072134567568817,-0.03042281451243795,-0.028539605538935763,0.9991167182685675,0.00013671875,0.0001171875,-0.00017578125,0.57421875,-0.078125,9.42578125
83,931000000,imu2_frame,-0.005070137008169522,-0.030420320007723753,-0.028544937579523838,0.9991166520381527,0.00013671875,0.0001171875,-0.00017578125,0.57421875,-0.078125,9.42578125
83,951000000,imu2_frame,-0.005068160261328684,-0.030417850319775584,-0.028550244370407533,0.9991165856294647,0.00013671875,0.0001171875,-0.00017578125,0.57421875,-0.078125,9.42578125
83,971000000,imu2_frame,-0.005066204110612862,-0.030415405201660008,-0.028555525883710846,0.9991165190526244,0.00013671875,0.0001171875,-0.00017578125,0.57421875,-0.078125,9.42578125
83,991000000,imu2_frame,-0.005082857103106439,-0.0304124492993882,-0.028559975343950827,0.9991163972729276,0.00013671875,0.0001171875,-0.00017578125,0.57421875,-0.11328125,9.42578125
84,11000000,imu2_frame,-0.005099083041454539,-0.03040840365282566,-0.028564180457471024,0.9991163175197452,0.00013671875,0.0001171875,-0.00017578125,0.57421875,-0.11328125,9.4609375
84,31000000,imu2_frame,-0.005115140582397176,-0.03040439938616296,-0.028568142640498964,0.9991162440181128,0.00013671875,0.0001171875,-0.00017578125,0.57421875,-0.11328125,9.4609375
84,51000000,imu2_frame,-0.005131031473855528,-0.030400436087494303,-0.028571866325196423,0.9991161766563484,0.00013671875,0.0001171875,-0.00017578125,0.57421875,-0.11328125,9.4609375
84,71000000,imu2_frame,-0.005146757445565017,-0.03039651334872637,-0.02857535587948891,0.9991161153241388,0.00013671875,0.0001171875,-0.00017578125,0.57421875,-0.11328125,9.4609375
84,91000000,imu2_frame,-0.005143800257108514,-0.03039316427389056,-0.02857941913433336,0.9991161162178696,0.00013671875,0.0001171875,-0.00017578125,0.57421875,-0.078125,9.4609375
84,111000000,imu2_frame,-0.00514087384085994,-0.03038984849701206,-0.02858348172016452,0.9991161159230864,0.00013671875,0.0001171875,-0.00017578125,0.57421875,-0.078125,9.4609375
84,131000000,imu2_frame,-0.0051379778769849805,-0.030386565687152485,-0.028587543244743278,0.9991161144633322,0.00013671875,0.0001171875,-0.00017578125,0.57421875,-0.078125,9.4609375
84,151000000,imu2_frame,-0.005135112048973469,-0.030383315516657745,-0.028591603323726678,0.9991161118617988,0.00013671875,0.0001171875,-0.00017578125,0.57421875,-0.078125,9.4609375
84,171000000,imu2_frame,-0.005132461495207238,-0.03038121991853169,-0.028595657928077597,0.9991160731681391,0.00013671875,0.0001171875,-0.00017578125,0.57421875,-0.078125,9.42578125
84,191000000,imu2_frame,-0.0051298385212214795,-0.03037914510506854,-0.028599707628804462,0.9991160338133797,0.00013671875,0.0001171875,-0.00017578125,0.57421875,-0.078125,9.42578125
84,211000000,imu2_frame,-0.005127242840431762,-0.030377090870202017,-0.028603752118895202,0.9991159938144517,0.00013671875,0.0001171875,-0.00017578125,0.57421875,-0.078125,9.42578125
84,231000000,imu2_frame,-0.005143262927591068,-0.030374520964479006,-0.028606984947802543,0.9991158970484018,0.00013671875,0.0001171875,-0.00017578125,0.57421875,-0.11328125,9.42578125
84,251000000,imu2_frame,-0.005140342519703535,-0.030371391575441265,-0.02861079596881586,0.9991158980851932,0.00013671875,0.0001171875,-0.00017578125,0.57421875,-0.078125,9.4609375
84,271000000,imu2_frame,-0.005137452498514327,-0.030368293289322012,-0.028614608205126568,0.9991158979526782,0.00013671875,0.0001171875,-0.00017578125,0.57421875,-0.078125,9.4609375
84,291000000,imu2_frame,-0.005153112501965276,-0.030364691568645255,-0.028617618226755702,0.9991158405633007,0.00013671875,0.0001171875,-0.00017578125,0.57421875,-0.11328125,9.4609375
84,311000000,imu2_frame,-0.005168609983277449,-0.030361126807315224,-0.028620403716613157,0.9991157890559678,0.00013671875,0.0001171875,-0.00017578125,0.57421875,-0.11328125,9.4609375
84,331000000,imu2_frame,-0.005165612162085893,-0.030359255245238543,-0.028623768182935442,0.999115765047752,0.00013671875,0.0001171875,-0.00017578125,0.57421875,-0.078125,9.42578125
84,351000000,imu2_frame,-0.005162645518320242,-0.03035740220282978,-0.028627138667737938,0.9991157401194548,0.00013671875,0.0001171875,-0.00017578125,0.57421875,-0.078125,9.42578125
84,371000000,imu2_frame,-0.0051780441877435895,-0.030353910768707807,-0.028629715468691155,0.9991156926760869,0.00013671875,0.0001171875,-0.00017578125,0.57421875,-0.11328125,9.4609375
84,391000000,imu2_frame,-0.0051749485916068065,-0.030352111980177166,-0.028632874358165257,0.999115672838439,0.00013671875,0.0001171875,-0.00017578125,0.57421875,-0.078125,9.42578125
84,411000000,imu2_frame,-0.0051716996853506435,-0.030349208726032702,-0.028636046049667692,0.9991156869545736,0.00013671875,0.0001171875,-0.00017578125,0.57421875,-0.078125,9.4609375
84,431000000,imu2_frame,-0.005168484570033819,-0.03034633428963997,-0.028639229152610506,0.9991156996644459,0.00013671875,0.0001171875,-0.00017578125,0.57421875,-0.078125,9.4609375
84,451000000,imu2_frame,-0.0051660950061815985,-0.030365364740345326,-0.028642474824434327,0.999115040784846,0.00013671875,0.0001171875,-0.00017578125,0.61328125,-0.078125,9.421875
84,471000000,imu2_frame,-0.00516293795173335,-0.030362328416163077,-0.02864566066410706,0.9991150580438535,0.00013671875,0.0001171875,-0.00017578125,0.57421875,-0.078125,9.4609375
84,491000000,imu2_frame,-0.005159813736316024,-0.03035932224634954,-0.028648856671904532,0.9991150738960661,0.00013671875,0.0001171875,-0.00017578125,0.57421875,-0.078125,9.4609375
84,511000000,imu2_frame,-0.005156722018686296,-0.030356345931646038,-0.028652062326560163,0.9991150883677692,0.00013671875,0.0001171875,-0.00017578125,0.57421875,-0.078125,9.4609375
84,531000000,imu2_frame,-0.005172436726816252,-0.030353984464438877,-0.02865446766627818,0.9991150099003627,0.00013671875,0.0001171875,-0.00017578125,0.57421875,-0.11328125,9.42578125
84,551000000,imu2_frame,-0.005187734004348549,-0.03035052736568682,-0.02865665972355154,0.9991149727423835,0.00013671875,0.0001171875,-0.00017578125,0.57421875,-0.11328125,9.4609375
84,571000000,imu2_frame,-0.005202872522824417,-0.030347105791556542,-0.02865863960722277,0.9991149411671565,0.00013671875,0.0001171875,-0.00017578125,0.57421875,-0.11328125,9.4609375
84,591000000,imu2_frame,-0.005217853929653664,-0.0303437193866666,-0.028660411336676496,0.999114915070416,0.00013671875,0.0001171875,-0.00017578125,0.57421875,-0.11328125,9.4609375
84,611000000,imu2_frame,-0.005214159915830762,-0.030340902924411276,-0.028662781561998762,0.9991149518945419,0.00013671875,0.0001171875,-0.00017578125,0.57421875,-0.078125,9.4609375
84,631000000,imu2_frame,-0.005229024248620867,-0.030337579210726055,-0.028664373834116165,0.9991149294579369,0.00013671875,0.0001171875,-0.00017578125,0.57421875,-0.11328125,9.4609375
84,651000000,imu2_frame,-0.005225214374333277,-0.030334824894458802,-0.028666567676497494,0.9991149700765242,0.00013671875,0.0001171875,-0.00017578125,0.57421875,-0.078125,9.4609375
84,671000000,imu2_frame,-0.005221444106947846,-0.03033209786358456,-0.02866878933310566,0.9991150088347217,0.00013671875,0.0001171875,-0.00017578125,0.57421875,-0.078125,9.4609375
84,691000000,imu2_frame,-0.00521789857792865,-0.030330520092087365,-0.02867103448092172,0.9991150108306691,0.00013671875,0.0001171875,-0.00017578125,0.57421875,-0.078125,9.42578125
84,711000000,imu2_frame,-0.005232724298035219,-0.03032730029392812,-0.028672504287130893,0.9991149888532387,0.00013671875,0.0001171875,-0.00017578125,0.57421875,-0.11328125,9.4609375
84,731000000,imu2_frame,-0.0052290617564876,-0.030325771253361573,-0.028674573570775352,0.9991149950539077,0.00013671875,0.0001171875,-0.00017578125,0.57421875,-0.078125,9.42578125
84,751000000,imu2_frame,-0.005225437278222235,-0.03032425725668231,-0.028676669565947433,0.9991149998121774,0.00013671875,0.0001171875,-0.00017578125,0.57421875,-0.078125,9.42578125
84,771000000,imu2_frame,-0.005221664916096625,-0.030321635913667863,-0.028678795074323152,0.999115038083257,0.00013671875,0.0001171875,-0.00017578125,0.57421875,-0.078125,9.4609375
84,791000000,imu2_frame,-0.005217931769046371,-0.03031904052882722,-0.028680948536071015,0.9991150745337276,0.00013671875,0.0001171875,-0.00017578125,0.57421875,-0.078125,9.4609375
84,811000000,imu2_frame,-0.005214237429754524,-0.030316470845526557,-0.028683129180276,0.9991151091960957,0.00013671875,0.0001171875,-0.00017578125,0.57421875,-0.078125,9.4609375
84,831000000,imu2_frame,-0.005210549908972726,-0.030333346287018944,-0.028704554921965643,0.9991140009025046,0.00013671875,-0.0018359375,-0.00212890625,0.57421875,-0.078125,9.4609375
84,851000000,imu2_frame,-0.005206900736052841,-0.030350052699935525,-0.02872581485253504,0.9991129015516184,0.00013671875,-0.0018359375,-0.00212890625,0.57421875,-0.078125,9.4609375
84,871000000,imu2_frame,-0.005221809384051989,-0.030366055109174967,-0.02874610700712183,0.9991117538773119,0.00013671875,-0.0018359375,-0.00212890625,0.57421875,-0.11328125,9.4609375
84,891000000,imu2_frame,-0.0052180434155721335,-0.03038243550111645,-0.02876681350570426,0.9991106795929378,0.00013671875,-0.0018359375,-0.00212890625,0.57421875,-0.078125,9.4609375
84,911000000,imu2_frame,-0.005272868782511809,-0.03037746643325445,-0.028749837538672583,0.9991110314821867,-0.00572265625,0.0001171875,0.00177734375,0.57421875,-0.078125,9.4609375
84,931000000,imu2_frame,-0.005345644644091631,-0.030372014259026567,-0.028731533488542734,0.9991113370473711,-0.00572265625,0.0001171875,0.00177734375,0.57421875,-0.11328125,9.4609375
84,951000000,imu2_frame,-0.005399144892622452,-0.030367157898468996,-0.028713295268696724,0.9991117212956772,-0.00572265625,0.0001171875,0.00177734375,0.57421875,-0.078125,9.4609375
84,971000000,imu2_frame,-0.005470609408039526,-0.030361818028945463,-0.02869375772083476,0.9991120561311128,-0.00572265625,0.0001171875,0.00177734375,0.57421875,-0.11328125,9.4609375
84,995000000,imu2_frame,-0.0054375456399247376,-0.030382464766274663,-0.02866799771225949,0.9991123484570241,0.00404296875,-0.0018359375,0.00177734375,0.57421875,-0.11328125,9.4609375
85,11000000,imu2_frame,-0.005420392352566451,-0.03039521907793913,-0.028650259378155032,0.999112562548141,0.00404296875,-0.0018359375,0.00177734375,0.57421875,-0.11328125,9.4609375
85,31000000,imu2_frame,-0.005377112940756212,-0.03041222102556562,-0.028630023619992395,0.9991128590986271,0.00404296875,-0.0018359375,0.00177734375,0.57421875,-0.078125,9.4609375
85,51000000,imu2_frame,-0.005334467913741231,-0.030430172196529773,-0.028610517376497696,0.9991130998879035,0.00404296875,-0.0018359375,0.00177734375,0.57421875,-0.078125,9.42578125
85,71000000,imu2_frame,-0.005310435805195102,-0.030428173361786617,-0.028611522942654292,0.9991132599922424,0.00208984375,0.0001171875,-0.00017578125,0.57421875,-0.078125,9.42578125
85,91000000,imu2_frame,-0.005286467771638551,-0.030425070632512402,-0.028612825227669197,0.9991134442934883,0.00208984375,0.0001171875,-0.00017578125,0.57421875,-0.078125,9.4609375
85,111000000,imu2_frame,-0.00526274864280308,-0.03042199732099405,-0.028614417538675017,0.9991136174953511,0.00208984375,0.0001171875,-0.00017578125,0.57421875,-0.078125,9.4609375
85,131000000,imu2_frame,-0.005239461316189078,-0.03042007542102117,-0.028616290412296005,0.9991137447655972,0.00208984375,0.0001171875,-0.00017578125,0.57421875,-0.078125,9.42578125
85,151000000,imu2_frame,-0.005235004524716394,-0.030417634903499028,-0.028617631772248655,0.9991138040114608,0.00208984375,0.0001171875,-0.00017578125,0.57421875,-0.11328125,9.42578125
85,171000000,imu2_frame,-0.00521200533847037,-0.03041575483277785,-0.02861982422303821,0.9991139186898291,0.00208984375,0.0001171875,-0.00017578125,0.57421875,-0.078125,9.42578125
85,191000000,imu2_frame,-0.0051892449880056426,-0.03041389208231708,-0.028622285475280843,0.9991140233622142,0.00208984375,0.0001171875,-0.00017578125,0.57421875,-0.078125,9.42578125
85,211000000,imu2_frame,-0.005166720995089945,-0.030412046512731158,-0.028625009936197186,0.9991141182203458,0.00208984375,0.0001171875,-0.00017578125,0.57421875,-0.078125,9.42578125
85,231000000,imu2_frame,-0.005163019625351736,-0.03040968155504331,-0.028627185297460715,0.9991141470112481,0.00208984375,0.0001171875,-0.00017578125,0.57421875,-0.11328125,9.42578125
85,251000000,imu2_frame,-0.005140582522966395,-0.030406754226578098,-0.02863019763605199,0.9991142654832078,0.00208984375,0.0001171875,-0.00017578125,0.57421875,-0.078125,9.4609375
85,271000000,imu2_frame,-0.005118378433627616,-0.030403854780660693,-0.02863346426267052,0.9991143741038887,0.00208984375,0.0001171875,-0.00017578125,0.57421875,-0.078125,9.4609375
85,291000000,imu2_frame,-0.005096404938647655,-0.030400982970124005,-0.02863697979469353,0.9991144730607148,0.00208984375,0.0001171875,-0.00017578125,0.57421875,-0.078125,9.4609375
85,311000000,imu2_frame,-0.005074845142338519,-0.030399260798759816,-0.028640735205261184,0.9991145275575631,0.00208984375,0.0001171875,-0.00017578125,0.57421875,-0.078125,9.42578125
85,331000000,imu2_frame,-0.005053323743654537,-0.030396432315419407,-0.028644729993549518,0.9991146081732729,0.00208984375,0.0001171875,-0.00017578125,0.57421875,-0.078125,9.4609375
85,351000000,imu2_frame,-0.0050508000892682215,-0.030394216373132787,-0.028648147906753917,0.9991145903503933,0.00208984375,0.0001171875,-0.00017578125,0.57421875,-0.11328125,9.42578125
85,371000000,imu2_frame,-0.0050297139595752915,-0.030392559217723603,-0.028652371938420667,0.9991146260084397,0.00208984375,0.0001171875,-0.00017578125,0.57421875,-0.078125,9.42578125
85,391000000,imu2_frame,-0.005027181229609802,-0.030389260338991055,-0.028656021595399084,0.9991146344295322,0.00208984375,0.0001171875,-0.00017578125,0.57421875,-0.11328125,9.4609375
85,411000000,imu2_frame,-0.005006340444770666,-0.030387651425281114,-0.028660468801702026,0.9991146604490765,0.00208984375,0.0001171875,-0.00017578125,0.57421875,-0.078125,9.42578125
85,431000000,imu2_frame,-0.004985716095764022,-0.030386057405040575,-0.028665135906264093,0.999114678169561,0.00208984375,0.0001171875,-0.00017578125,0.57421875,-0.078125,9.42578125
85,451000000,imu2_frame,-0.004965305936907987,-0.030384478155957628,-0.028670018068184415,0.9991146877551712,0.00208984375,0.0001171875,-0.00017578125,0.57421875,-0.078125,9.42578125
85,471000000,imu2_frame,-0.004945107745818581,-0.030382913556273046,-0.028675110521346355,0.9991146893674435,0.00208984375,0.0001171875,-0.00017578125,0.57421875,-0.078125,9.42578125
85,491000000,imu2_frame,-0.004925119323167678,-0.03038136348479164,-0.028680408573407045,0.999114683165311,0.00208984375,0.0001171875,-0.00017578125,0.57421875,-0.078125,9.42578125
85,511000000,imu2_frame,-0.004905338492443455,-0.030379827820893258,-0.0286859076047996,0.9991146693051486,0.00208984375,0.0001171875,-0.00017578125,0.57421875,-0.078125,9.42578125
85,531000000,imu2_frame,-0.004904097490379315,-0.030376648841375403,-0.02869080405170576,0.9991146314591931,0.00208984375,0.0001171875,-0.00017578125,0.57421875,-0.11328125,9.4609375
85,551000000,imu2_frame,-0.00488374462368552,-0.030353366611810952,-0.028696424264457766,0.9991152773370119,0.00208984375,0.0001171875,-0.00017578125,0.53515625,-0.078125,9.46484375
85,571000000,imu2_frame,-0.0048827281331245975,-0.030350450933611176,-0.028701502087110954,0.9991152250226438,0.00208984375,0.0001171875,-0.00017578125,0.57421875,-0.11328125,9.4609375
85,591000000,imu2_frame,-0.00488111409527322,-0.030326894744909176,-0.028706496655182868,0.9991158047144016,0.00208984375,0.0001171875,-0.00017578125,0.53515625,-0.11328125,9.46484375
85,611000000,imu2_frame,-0.004880379599339609,-0.030325363780366515,-0.028711514704672047,0.999115710581071,0.00208984375,0.0001171875,-0.00017578125,0.57421875,-0.11328125,9.42578125
85,631000000,imu2_frame,-0.004879652792327555,-0.03032384807488087,-0.028716494352145308,0.9991156170227152,0.00208984375,0.0001171875,-0.00017578125,0.57421875,-0.11328125,9.42578125
85,651000000,imu2_frame,-0.004860159251828627,-0.030321763185220115,-0.028722244761613218,0.9991156100198018,0.00208984375,0.0001171875,-0.00017578125,0.57421875,-0.078125,9.4609375
85,671000000,imu2_frame,-0.004841053739158285,-0.030320820349197686,-0.028728181869126925,0.9991155606928264,0.00208984375,0.0001171875,-0.00017578125,0.57421875,-0.078125,9.42578125
85,691000000,imu2_frame,-0.004821579679183134,-0.030299371848604584,-0.028734253768734973,0.999116130935404,0.00208984375,0.0001171875,-0.00017578125,0.53515625,-0.078125,9.421875
85,711000000,imu2_frame,-0.004802874977780696,-0.030298650876635736,-0.028740569480583466,0.9991160612325954,0.00208984375,0.0001171875,-0.00017578125,0.57421875,-0.078125,9.42578125
85,731000000,imu2_frame,-0.004784178930951155,-0.030296813921681622,-0.02874706402112817,0.9991160197936559,0.00208984375,0.0001171875,-0.00017578125,0.57421875,-0.078125,9.4609375
85,751000000,imu2_frame,-0.004784197026351556,-0.030294457966482072,-0.0287529306060501,0.9991159223317853,0.00208984375,0.0001171875,-0.00017578125,0.57421875,-0.11328125,9.4609375
85,771000000,imu2_frame,-0.004765880644500159,-0.030293784323309755,-0.028759538770348526,0.9991158401020235,0.00208984375,0.0001171875,-0.00017578125,0.57421875,-0.078125,9.42578125
85,791000000,imu2_frame,-0.0047477544868903465,-0.030293116499852755,-0.028766313999162647,0.9991157516018654,0.00208984375,0.0001171875,-0.00017578125,0.57421875,-0.078125,9.42578125
85,811000000,imu2_frame,-0.004729630955547155,-0.030291332224352402,-0.028773256405123456,0.9991156917489302,0.00208984375,0.0001171875,-0.00017578125,0.57421875,-0.078125,9.4609375
85,831000000,imu2_frame,-0.00471169565030481,-0.030289564902351972,-0.028780360703573704,0.999115625450777,0.00208984375,0.0001171875,-0.00017578125,0.57421875,-0.078125,9.4609375
85,851000000,imu2_frame,-0.004712721030734433,-0.030288397590787466,-0.02878681466398729,0.9991154700700867,0.00208984375,0.0001171875,-0.00017578125,0.57421875,-0.11328125,9.42578125
85,871000000,imu2_frame,-0.004714034286829039,-0.03030653325143308,-0.02879324755620012,0.9991147285563304,0.00208984375,0.0001171875,-0.00017578125,0.61328125,-0.11328125,9.46484375
85,891000000,imu2_frame,-0.004714780938983878,-0.03030407619166733,-0.028799548105605192,0.9991146179672181,0.00208984375,0.0001171875,-0.00017578125,0.57421875,-0.11328125,9.4609375
85,911000000,imu2_frame,-0.004715774379689364,-0.030302763913737513,-0.028805772548500606,0.99911447364107,0.00208984375,0.0001171875,-0.00017578125,0.57421875,-0.11328125,9.42578125
85,931000000,imu2_frame,-0.004697983163876657,-0.03030088205791506,-0.028812733705114748,0.9991144138071186,0.00208984375,0.0001171875,-0.00017578125,0.57421875,-0.078125,9.4609375
85,951000000,imu2_frame,-0.004698896671477037,-0.030298480584899444,-0.028819051072700694,0.9991143001376702,0.00208984375,0.0001171875,-0.00017578125,0.57421875,-0.11328125,9.4609375
85,971000000,imu2_frame,-0.004699800771350374,-0.030296103154758055,-0.028825297184156464,0.999114187792662,0.00208984375,0.0001171875,-0.00017578125,0.57421875,-0.11328125,9.4609375
85,991000000,imu2_frame,-0.004700695560648945,-0.030293749526906617,-0.028831472832717742,0.9991140767575759,0.00208984375,0.0001171875,-0.00017578125,0.57421875,-0.11328125,9.4609375
86,11000000,imu2_frame,-0.004701835634537169,-0.030292539646669753,-0.028837571653369396,0.9991139320640854,0.00208984375,0.0001171875,-0.00017578125,0.57421875,-0.11328125,9.42578125
86,31000000,imu2_frame,-0.004723825264611481,-0.03031003477173672,-0.028842761563660217,0.9991131479328992,0.00208984375,0.0001171875,-0.00017578125,0.61328125,-0.15234375,9.46484375
86,51000000,imu2_frame,-0.0047455866222884885,-0.030327356035788226,-0.028847617647746952,0.9991123789842353,0.00208984375,0.0001171875,-0.00017578125,0.61328125,-0.15234375,9.46484375
86,71000000,imu2_frame,-0.004746260551739124,-0.030325812575147992,-0.02885298240423223,0.9991122677201062,0.00208984375,0.0001171875,-0.00017578125,0.57421875,-0.11328125,9.42578125
86,91000000,imu2_frame,-0.004767248659087301,-0.030322566320696718,-0.02885740395809473,0.9991121386254642,0.00208984375,0.0001171875,-0.00017578125,0.57421875,-0.15234375,9.4609375
86,111000000,imu2_frame,-0.004767443307275931,-0.030319951756310675,-0.02886241121210054,0.99911207240671,0.00208984375,0.0001171875,-0.00017578125,0.57421875,-0.11328125,9.4609375
86,131000000,imu2_frame,-0.004768190473138215,-0.030337774723037232,-0.028867416259168294,0.9991113832115947,0.00208984375,0.0001171875,-0.00017578125,0.61328125,-0.11328125,9.46484375
86,151000000,imu2_frame,-0.004768929868194524,-0.030355419517370513,-0.028872356303113123,0.9991107010013168,0.00208984375,0.0001171875,-0.00017578125,0.61328125,-0.11328125,9.46484375
86,171000000,imu2_frame,-0.004790630410609664,-0.030373748002962206,-0.028876328781310093,0.9991099253478745,0.00208984375,0.0001171875,-0.00017578125,0.61328125,-0.15234375,9.421875
86,191000000,imu2_frame,-0.004811157593329786,-0.030370024455198718,-0.028879946683198803,0.9991098353318211,0.00208984375,0.0001171875,-0.00017578125,0.57421875,-0.15234375,9.4609375
86,211000000,imu2_frame,-0.004852497224225096,-0.030366980723344907,-0.02888236632256494,0.9991096579795663,0.00208984375,0.0001171875,-0.00017578125,0.57421875,-0.19140625,9.421875
86,231000000,imu2_frame,-0.004893936964623803,-0.030384462808360834,-0.02888429458166367,0.999108868606096,0.00208984375,0.0001171875,-0.00017578125,0.61328125,-0.19140625,9.42578125
86,251000000,imu2_frame,-0.004934946346021166,-0.030401772408552737,-0.02888567602748564,0.9991081003872483,0.00208984375,0.0001171875,-0.00017578125,0.61328125,-0.19140625,9.42578125
86,271000000,imu2_frame,-0.004954923292458038,-0.03041964669940016,-0.028887415890481636,0.999107407155517,0.00208984375,0.0001171875,-0.00017578125,0.61328125,-0.15234375,9.421875
86,291000000,imu2_frame,-0.004974692676354829,-0.03043734344244377,-0.028888880530824623,0.9991067276015203,0.00208984375,0.0001171875,-0.00017578125,0.61328125,-0.15234375,9.421875
86,311000000,imu2_frame,-0.004993849598010108,-0.030453405232870226,-0.028890087534551787,0.9991061076873473,0.00208984375,0.0001171875,-0.00017578125,0.61328125,-0.15234375,9.46484375
86,331000000,imu2_frame,-0.004991690502731154,-0.030449495930803174,-0.028891876711696945,0.999106185889949,0.00208984375,0.0001171875,-0.00017578125,0.57421875,-0.11328125,9.4609375
86,351000000,imu2_frame,-0.005031154820445975,-0.03044566775597369,-0.028891875335735763,0.9991061046433707,0.00208984375,0.0001171875,-0.00017578125,0.57421875,-0.19140625,9.421875
86,371000000,imu2_frame,-0.00557053355912708,-0.030544636126503644,-0.028870089860533896,0.9991008519019543,0.00208984375,0.0001171875,-0.00017578125,0.8046875,-1.1484375,9.50390625
86,391000000,imu2_frame,-0.005645106035273871,-0.03057699465314233,-0.02886135299846069,0.9990996959657883,0.00208984375,0.0001171875,-0.00017578125,0.65234375,-0.26953125,9.50390625
86,411000000,imu2_frame,-0.005268186980215047,-0.030422665956198858,-0.028870521468894773,0.9991062008576331,0.00208984375,0.0001171875,-0.00017578125,0.26953125,0.57421875,9.42578125
86,431000000,imu2_frame,-0.005504873380255447,-0.03043125686677995,-0.028858643189491964,0.9991050063370902,0.00208984375,0.0001171875,-0.00017578125,0.61328125,-0.57421875,9.5
86,451000000,imu2_frame,-0.005177734148371917,-0.03049986098757349,-0.028868470695247162,0.9991043794061485,0.00208984375,0.0001171875,-0.00017578125,0.69140625,0.49609375,9.42578125
86,471000000,imu2_frame,-0.005133961129004707,-0.030475965850210736,-0.02886978293045992,0.9991052965439483,0.00208984375,0.0001171875,-0.00017578125,0.53515625,-0.0390625,9.46484375
86,491000000,imu2_frame,-0.0053311297931772535,-0.030445334448807218,-0.02886118918967565,0.999105446098652,0.00208984375,0.0001171875,-0.00017578125,0.53515625,-0.49609375,9.46484375
86,511000000,imu2_frame,-0.005265226074777223,-0.03042387731776282,-0.028861557020516744,0.9991064385788366,0.00208984375,0.0001171875,-0.00017578125,0.53515625,0.0,9.421875
86,531000000,imu2_frame,-0.00528099925311768,-0.03043877784912663,-0.028859395653120835,0.9991059639159786,0.00208984375,0.0001171875,-0.00017578125,0.61328125,-0.15234375,9.50390625
86,551000000,imu2_frame,-0.0054191614844598095,-0.030452750462144792,-0.028851738433485534,0.9991050194386282,0.00208984375,0.0001171875,-0.00017578125,0.61328125,-0.3828125,9.421875
86,571000000,imu2_frame,-0.005393457592782061,-0.03042874484325467,-0.028849294225247523,0.9991059605092766,0.00208984375,0.0001171875,-0.00017578125,0.53515625,-0.078125,9.46484375
86,591000000,imu2_frame,-0.005368629570383599,-0.03042564749907861,-0.02884726530337222,0.9991062471405705,0.00208984375,0.0001171875,-0.00017578125,0.57421875,-0.078125,9.4609375
86,611000000,imu2_frame,-0.005566597138671246,-0.03047904497170448,-0.02883616291624286,0.9991038567247034,0.00208984375,0.0001171875,-0.00017578125,0.69140625,-0.49609375,9.42578125
86,631000000,imu2_frame,-0.005398029006541216,-0.030479461051620804,-0.028838237248832645,0.9991047091317443,0.00208984375,0.0001171875,-0.00017578125,0.57421875,0.19140625,9.46484375
86,651000000,imu2_frame,-0.005251744036828353,-0.03047938735317793,-0.02884151711506078,0.9991053963529816,0.00208984375,0.0001171875,-0.00017578125,0.57421875,0.15234375,9.4609375
86,671000000,imu2_frame,-0.0050658860431995,-0.030480374281750853,-0.02884838911555286,0.9991061275098253,0.00208984375,0.0001171875,-0.00017578125,0.57421875,0.23046875,9.46484375
86,691000000,imu2_frame,-0.00502398902903174,-0.03047846105195396,-0.028851361577827125,0.9991063116011462,0.00208984375,0.0001171875,-0.00017578125,0.57421875,-0.0390625,9.42578125
86,711000000,imu2_frame,-0.004982417824775783,-0.03047543990318464,-0.028854833264261998,0.9991065116756163,0.00208984375,0.0001171875,-0.00017578125,0.57421875,-0.0390625,9.4609375
86,731000000,imu2_frame,-0.005043146498653385,-0.030491244694340558,-0.02885444942732752,0.999105735855134,0.00208984375,0.0001171875,-0.00017578125,0.61328125,-0.23046875,9.42578125
86,751000000,imu2_frame,-0.005021346733037289,-0.0304668284449532,-0.028856699722983246,0.9991065255129656,0.00208984375,0.0001171875,-0.00017578125,0.53515625,-0.078125,9.46484375
86,771000000,imu2_frame,-0.004858021759598123,-0.030468719222112185,-0.028865452993140136,0.9991070224941112,0.00208984375,0.0001171875,-0.00017578125,0.57421875,0.19140625,9.421875
86,791000000,imu2_frame,-0.00477762350780959,-0.030487394247337127,-0.02887271346996816,0.9991066307069063,0.00208984375,0.0001171875,-0.00017578125,0.61328125,0.0390625,9.46484375
86,811000000,imu2_frame,-0.004759985998193681,-0.030505547128534323,-0.028878220880382822,0.9991060016266892,0.00208984375,0.0001171875,-0.00017578125,0.61328125,-0.078125,9.421875
86,831000000,imu2_frame,-0.004741734870480273,-0.030501641465969793,-0.028883847804298948,0.9991060449993873,0.00208984375,0.0001171875,-0.00017578125,0.57421875,-0.078125,9.4609375
86,851000000,imu2_frame,-0.004724240548327332,-0.03051818554441334,-0.028889697587740078,0.9991054535311111,0.00208984375,0.0001171875,-0.00017578125,0.61328125,-0.078125,9.46484375
86,871000000,imu2_frame,-0.00468636285138593,-0.030535162371158022,-0.02889659807047988,0.999104913651287,0.00208984375,0.0001171875,-0.00017578125,0.61328125,-0.0390625,9.46484375
86,891000000,imu2_frame,-0.004669443540512695,-0.030551368407879337,-0.028903006496860683,0.9991043120720031,0.00208984375,0.0001171875,-0.00017578125,0.61328125,-0.078125,9.46484375
86,911000000,imu2_frame,-0.004652929618080928,-0.030568876064999556,-0.028909553996156766,0.999103664165954,0.00208984375,0.0001171875,-0.00017578125,0.61328125,-0.078125,9.421875
86,931000000,imu2_frame,-0.004654864863994534,-0.03058420377780026,-0.02891543816546087,0.9991030157836956,0.00208984375,0.0001171875,-0.00017578125,0.61328125,-0.11328125,9.46484375
86,951000000,imu2_frame,-0.004638272754392925,-0.030599918030107205,-0.028922040715125788,0.9991024206773194,0.00208984375,0.0001171875,-0.00017578125,0.61328125,-0.078125,9.46484375
86,971000000,imu2_frame,-0.004640673987762115,-0.03061639652339335,-0.0289279668068483,0.9991017331309577,0.00208984375,0.0001171875,-0.00017578125,0.61328125,-0.11328125,9.421875
86,996000000,imu2_frame,-0.004658517834241292,-0.03063196909404698,-0.028933242524416772,0.999101019996493,0.00208984375,0.0001171875,-0.00017578125,0.61328125,-0.15234375,9.421875
87,11000000,imu2_frame,-0.0047067480907451685,-0.030645735983007214,-0.02893666493202145,0.9991002726508896,0.00208984375,0.0001171875,-0.00017578125,0.61328125,-0.19140625,9.4609375
87,31000000,imu2_frame,-0.004790350200415419,-0.030657896378406293,-0.028937995818286866,0.9990994636834859,0.00208984375,0.0001171875,-0.00017578125,0.61328125,-0.26953125,9.46484375
87,51000000,imu2_frame,-0.004912114885560877,-0.03066879824263439,-0.02893655634003528,0.9990985795450236,0.00208984375,0.0001171875,-0.00017578125,0.61328125,-0.34375,9.46484375
87,71000000,imu2_frame,-0.004830545908376117,-0.03066507048505873,-0.028942339588088548,0.999098924159936,0.00208984375,0.0001171875,-0.00017578125,0.57421875,0.0390625,9.4609375
87,91000000,imu2_frame,-0.004931979585085092,-0.030697159803127264,-0.028941292238219066,0.9990974735034494,0.00208984375,0.0001171875,-0.00017578125,0.65234375,-0.3046875,9.4609375
87,111000000,imu2_frame,-0.004849548344049064,-0.030673765609664748,-0.028946728883230594,0.9990984380285773,0.00208984375,0.0001171875,-0.00017578125,0.53515625,0.0390625,9.421875
87,131000000,imu2_frame,-0.0047898472770090805,-0.030691266315596304,-0.028952350654781935,0.9990980256844525,0.00208984375,0.0001171875,-0.00017578125,0.61328125,0.0,9.421875
87,151000000,imu2_frame,-0.004790674500810165,-0.030706839747857158,-0.02895604583848857,0.9990974361091747,0.00208984375,0.0001171875,-0.00017578125,0.61328125,-0.11328125,9.421875
87,171000000,imu2_frame,-0.004791493073903135,-0.030722257508790828,-0.02895968862930511,0.9990968526234981,0.00208984375,0.0001171875,-0.00017578125,0.61328125,-0.11328125,9.421875
87,191000000,imu2_frame,-0.004792303084852545,-0.030737521154628772,-0.028963279707385076,0.999096275167215,0.00208984375,0.0001171875,-0.00017578125,0.61328125,-0.11328125,9.421875
87,211000000,imu2_frame,-0.004875016111948266,-0.030748766386352846,-0.02896323570332054,0.9990955302478437,0.00208984375,0.0001171875,-0.00017578125,0.61328125,-0.26953125,9.46484375
87,231000000,imu2_frame,-0.004855568704321441,-0.03074243719178999,-0.028966503302694027,0.9990957249905945,0.00208984375,0.0001171875,-0.00017578125,0.57421875,-0.078125,9.4609375
87,251000000,imu2_frame,-0.004855713232458238,-0.0307575027965843,-0.02896921706219329,0.999095181918883,0.00208984375,0.0001171875,-0.00017578125,0.61328125,-0.11328125,9.421875
87,271000000,imu2_frame,-0.004836466259996074,-0.03075108519560308,-0.02897266613658201,0.999095372809997,0.00208984375,0.0001171875,-0.00017578125,0.57421875,-0.078125,9.4609375
87,291000000,imu2_frame,-0.004877539215795458,-0.030744229523643165,-0.028973703068829636,0.9990953540541941,0.00208984375,0.0001171875,-0.00017578125,0.57421875,-0.19140625,9.421875
87,311000000,imu2_frame,-0.004836880016807525,-0.030717876050431893,-0.02897769168748983,0.9990962466484989,0.00208984375,0.0001171875,-0.00017578125,0.53515625,-0.0390625,9.46484375
87,331000000,imu2_frame,-0.004818398264146654,-0.03073226509167868,-0.028981359111667587,0.999095787071762,0.00208984375,0.0001171875,-0.00017578125,0.61328125,-0.078125,9.46484375
87,351000000,imu2_frame,-0.004839176958659404,-0.03074536700899541,-0.02898351050522706,0.999095221133921,0.00208984375,0.0001171875,-0.00017578125,0.61328125,-0.15234375,9.46484375
87,371000000,imu2_frame,-0.004960985747946222,-0.030775906748624557,-0.028981023151975073,0.9990937556011814,0.00208984375,0.0001171875,-0.00017578125,0.65234375,-0.34375,9.46484375
87,391000000,imu2_frame,-0.0048577335575270796,-0.03075104481664119,-0.02898657966993332,0.9990948673006022,0.00208984375,0.0001171875,-0.00017578125,0.53515625,0.078125,9.46484375
87,411000000,imu2_frame,-0.004817887235028246,-0.030745293142965716,-0.02899073840616833,0.9990951165924138,0.00208984375,0.0001171875,-0.00017578125,0.57421875,-0.0390625,9.4609375
87,431000000,imu2_frame,-0.004838128083666709,-0.030737854154031515,-0.028992751974429805,0.9990951892445489,0.00208984375,0.0001171875,-0.00017578125,0.57421875,-0.15234375,9.4609375
87,451000000,imu2_frame,-0.0047990687826191735,-0.030752644971277592,-0.028997149544085853,0.999094794844017,0.00208984375,0.0001171875,-0.00017578125,0.61328125,-0.0390625,9.46484375
87,471000000,imu2_frame,-0.004759941242590941,-0.030747998595214952,-0.029001941926857143,0.9990949859278782,0.00208984375,0.0001171875,-0.00017578125,0.57421875,-0.0390625,9.42578125
87,491000000,imu2_frame,-0.004721830503382895,-0.03076415089065425,-0.029007226668625794,0.9990945161183047,0.00208984375,0.0001171875,-0.00017578125,0.61328125,-0.0390625,9.421875
87,511000000,imu2_frame,-0.004723364836785614,-0.030778991574411677,-0.02901121653344047,0.9990939359327186,0.00208984375,0.0001171875,-0.00017578125,0.61328125,-0.11328125,9.421875
87,531000000,imu2_frame,-0.004744918303702891,-0.030772327698653797,-0.0290141952415134,0.9990939525754249,0.00208984375,0.0001171875,-0.00017578125,0.57421875,-0.15234375,9.42578125
87,551000000,imu2_frame,-0.004726822230084847,-0.030765756109407502,-0.029018597392521803,0.9990941128882666,0.00208984375,0.0001171875,-0.00017578125,0.57421875,-0.078125,9.4609375
87,571000000,imu2_frame,-0.004647788703729496,-0.0307814650508657,-0.029025929160499824,0.9990937868417847,0.00208984375,0.0001171875,-0.00017578125,0.61328125,0.0390625,9.46484375
87,591000000,imu2_frame,-0.004649220957427278,-0.030774255480492656,-0.02903062481404846,0.9990938658439539,0.00208984375,0.0001171875,-0.00017578125,0.57421875,-0.11328125,9.4609375
87,611000000,imu2_frame,-0.0046721646388942,-0.030788386140298662,-0.029034392742988004,0.9990932139667995,0.00208984375,0.0001171875,-0.00017578125,0.61328125,-0.15234375,9.421875
87,631000000,imu2_frame,-0.004693918814669907,-0.030780507155155276,-0.029037798181180536,0.9990932557985874,0.00208984375,0.0001171875,-0.00017578125,0.57421875,-0.15234375,9.4609375
87,651000000,imu2_frame,-0.004677152580928359,-0.030795727081573306,-0.029042650031374653,0.9990927243836816,0.00208984375,0.0001171875,-0.00017578125,0.61328125,-0.078125,9.421875
87,671000000,imu2_frame,-0.004698854903357002,-0.030787774787652423,-0.029045910215315694,0.9990927728624535,0.00208984375,0.0001171875,-0.00017578125,0.57421875,-0.15234375,9.4609375
87,691000000,imu2_frame,-0.0047832266094401405,-0.030799956278881914,-0.02904619384581272,0.9990919887875657,0.00208984375,0.0001171875,-0.00017578125,0.61328125,-0.26953125,9.421875
87,711000000,imu2_frame,-0.004925135344439788,-0.03078842070812965,-0.029042778254829888,0.9990917541564334,0.00208984375,0.0001171875,-0.00017578125,0.57421875,-0.3828125,9.4609375
87,731000000,imu2_frame,-0.00482347854739205,-0.03080451893548318,-0.029048283928430327,0.9990915938334533,0.00208984375,0.0001171875,-0.00017578125,0.61328125,0.078125,9.46484375
87,751000000,imu2_frame,-0.00488642917619596,-0.030837617353282065,-0.029047926722038306,0.9990902772617847,0.00208984375,0.0001171875,-0.00017578125,0.65234375,-0.23046875,9.42578125
87,771000000,imu2_frame,-0.004927105322805108,-0.030849197662683823,-0.029047637618347767,0.9990897283955531,0.00208984375,0.0001171875,-0.00017578125,0.61328125,-0.19140625,9.4609375
87,791000000,imu2_frame,-0.004907302116495664,-0.030842991219694586,-0.029049396242262153,0.9990899663476355,0.00208984375,0.0001171875,-0.00017578125,0.57421875,-0.078125,9.42578125
87,811000000,imu2_frame,-0.004906596409248034,-0.03085559250129273,-0.0290506314011999,0.9990895448048001,0.00208984375,0.0001171875,-0.00017578125,0.61328125,-0.11328125,9.46484375
87,831000000,imu2_frame,-0.004926866436472105,-0.03086892419986403,-0.029050945045468176,0.999089024110377,0.00208984375,0.0001171875,-0.00017578125,0.61328125,-0.15234375,9.421875
87,851000000,imu2_frame,-0.004967531727475608,-0.030881385307410542,-0.029050092327248117,0.9990884624525549,0.00208984375,0.0001171875,-0.00017578125,0.61328125,-0.19140625,9.42578125
87,871000000,imu2_frame,-0.005108944605648092,-0.030890889079930206,-0.0290442974819939,0.9990876240053449,0.00208984375,0.0001171875,-0.00017578125,0.61328125,-0.3828125,9.421875
87,891000000,imu2_frame,-0.004985638096204963,-0.030865436745878994,-0.029048162298329187,0.9990889212148987,0.00208984375,0.0001171875,-0.00017578125,0.53515625,0.11328125,9.46484375
87,911000000,imu2_frame,-0.00500467967122238,-0.030877215836660157,-0.029047517118297433,0.9990884808027901,0.00208984375,0.0001171875,-0.00017578125,0.61328125,-0.15234375,9.46484375
87,931000000,imu2_frame,-0.0050640658259946585,-0.030867141451003836,-0.02904478065160675,0.9990885724163068,0.00208984375,0.0001171875,-0.00017578125,0.57421875,-0.23046875,9.46484375
87,951000000,imu2_frame,-0.005042839664556187,-0.03086076437538116,-0.02904484041576303,0.9990888750434106,0.00208984375,0.0001171875,-0.00017578125,0.57421875,-0.078125,9.42578125
87,971000000,imu2_frame,-0.0050407258068406605,-0.03087319650877017,-0.029044413148107996,0.9990885140394485,0.00208984375,0.0001171875,-0.00017578125,0.61328125,-0.11328125,9.46484375
87,991000000,imu2_frame,-0.005100361814241914,-0.030883827681979958,-0.029041306025543612,0.9990879731241912,0.00208984375,0.0001171875,-0.00017578125,0.61328125,-0.23046875,9.4609375
88,11000000,imu2_frame,-0.005179874609790189,-0.030893622159993535,-0.029036576843142654,0.9990873986864686,0.00208984375,0.0001171875,-0.00017578125,0.61328125,-0.26953125,9.46484375
88,31000000,imu2_frame,-0.005074197362817236,-0.03086889359004183,-0.02903882302579446,0.9990886400549887,0.00208984375,0.0001171875,-0.00017578125,0.53515625,0.078125,9.421875
88,51000000,imu2_frame,-0.004985182840655153,-0.030841893201655094,-0.029546561015140988,0.9990750353742014,0.00208984375,0.0001171875,-0.00017578125,0.53515625,0.078125,9.421875
88,71000000,imu2_frame,-0.004897075425604107,-0.030815251927603822,-0.03005059617535469,0.999061259668505,0.00208984375,0.0001171875,-0.00017578125,0.53515625,0.078125,9.421875
88,91000000,imu2_frame,-0.004873127740864245,-0.03082832345033217,-0.030548266906861774,0.9990458800717064,0.00208984375,0.0001171875,-0.00017578125,0.61328125,-0.0390625,9.421875
88,111000000,imu2_frame,-0.004848684844558351,-0.03081941541145973,-0.03104141755758033,0.99903107273247,0.00208984375,0.0001171875,-0.00017578125,0.57421875,-0.0390625,9.4609375
88,131000000,imu2_frame,-0.004863589710660205,-0.03080938405114161,-0.03152843375989415,0.9990160585366803,0.00208984375,0.0001171875,-0.00017578125,0.57421875,-0.11328125,9.4609375
88,151000000,imu2_frame,-0.004939993669098566,-0.030797334864817286,-0.032007883633792616,0.9990008088150176,0.00208984375,0.0001171875,-0.00017578125,0.57421875,-0.23046875,9.46484375
88,171000000,imu2_frame,-0.0050161957741156425,-0.03078670299396718,-0.0324817451982213,0.9989854618199382,0.00208984375,0.0001171875,-0.00017578125,0.57421875,-0.23046875,9.421875
88,191000000,imu2_frame,-0.005093503593402145,-0.03077580223249003,-0.03301177447802178,0.9989680320029781,0.00208984375,0.0001171875,-0.00017578125,0.57421875,-0.23046875,9.421875
88,211000000,imu2_frame,-0.0051721251714760995,-0.03076458546423781,-0.03360458101492011,0.9989482076350285,0.00208984375,0.0001171875,-0.00017578125,0.57421875,-0.23046875,9.421875
88,231000000,imu2_frame,-0.005371537617671744,-0.03074909362393755,-0.03418534102053625,0.9989279264712935,0.00208984375,0.0001171875,-0.00017578125,0.57421875,-0.4609375,9.42578125
88,251000000,imu2_frame,-0.005283480684385043,-0.030721716199676962,-0.03477049755917715,0.9989090416474823,0.00208984375,0.0001171875,-0.00017578125,0.53515625,0.078125,9.46484375
88,271000000,imu2_frame,-0.005360107077406706,-0.03071083439182961,-0.035344054838714306,0.9988888385053837,0.00208984375,0.0001171875,-0.00017578125,0.57421875,-0.23046875,9.421875
88,291000000,imu2_frame,-0.005374091907263391,-0.030720076180582093,-0.035913893200411655,0.9988681536273049,0.00208984375,0.0001171875,-0.00017578125,0.61328125,-0.11328125,9.50390625
88,311000000,imu2_frame,-0.0053853740489387325,-0.030729671034132554,-0.03639432415822117,0.99885040833628,0.00208984375,0.0001171875,-0.00017578125,0.61328125,-0.11328125,9.50390625
88,331000000,imu2_frame,-0.005276810140661693,-0.030724504297593026,-0.03687520055535813,0.9988335094971578,0.00208984375,0.0001171875,-0.00017578125,0.57421875,0.11328125,9.4609375
88,351000000,imu2_frame,-0.005372322898834494,-0.030733760274540674,-0.03734397086285487,0.9988152992251632,0.00208984375,0.0001171875,-0.00017578125,0.61328125,-0.26953125,9.421875
88,371000000,imu2_frame,-0.005283222589324056,-0.0307483709099892,-0.037815074568324364,0.9987975998073111,0.00208984375,0.0001171875,-0.00017578125,0.61328125,0.078125,9.46484375
88,391000000,imu2_frame,-0.005195477823193903,-0.030762847875445996,-0.03829606821545904,0.9987792876106402,0.00208984375,0.0001171875,-0.00017578125,0.61328125,0.078125,9.46484375
88,411000000,imu2_frame,-0.005111443830762314,-0.030776801285466625,-0.0388637096311379,0.9987573647880182,0.00208984375,0.0001171875,-0.00017578125,0.61328125,0.078125,9.46484375
88,431000000,imu2_frame,-0.005027044618733933,-0.03079091762241906,-0.03938600352268283,0.9987368977568025,0.00208984375,0.0001171875,-0.00017578125,0.61328125,0.078125,9.46484375
88,451000000,imu2_frame,-0.0050648249189236905,-0.03080011117388713,-0.039898975600981317,0.9987160619746781,0.00208984375,0.0001171875,-0.00017578125,0.61328125,-0.15234375,9.46484375
88,471000000,imu2_frame,-0.005101937634563275,-0.030809232279897382,-0.04039706987267964,0.9986955683211968,0.00208984375,0.0001171875,-0.00017578125,0.61328125,-0.15234375,9.46484375
88,491000000,imu2_frame,-0.005139179342688441,-0.030818151535766117,-0.040906048834984735,0.9986743841414538,0.00208984375,0.0001171875,-0.00017578125,0.61328125,-0.15234375,9.46484375
88,511000000,imu2_frame,-0.005178280468468174,-0.030826578963034243,-0.04148189638099185,0.9986501688346436,0.00208984375,0.0001171875,-0.00017578125,0.61328125,-0.15234375,9.46484375
88,531000000,imu2_frame,-0.00521598738536392,-0.030835059384262526,-0.04201911718842628,0.9986272509695848,0.00208984375,0.0001171875,-0.00017578125,0.61328125,-0.15234375,9.46484375
88,551000000,imu2_frame,-0.005252045458673931,-0.03084364216767366,-0.04250943906379242,0.9986060451183011,0.00208984375,0.0001171875,-0.00017578125,0.61328125,-0.15234375,9.46484375
88,571000000,imu2_frame,-0.005288348809301856,-0.030852009333357876,-0.043014148177720445,0.9985839824188603,0.00208984375,0.0001171875,-0.00017578125,0.61328125,-0.15234375,9.46484375
88,591000000,imu2_frame,-0.005324473008121953,-0.03086023435676389,-0.043519436633534796,0.9985616428432104,0.00208984375,0.0001171875,-0.00017578125,0.61328125,-0.15234375,9.46484375
88,611000000,imu2_frame,-0.005359937675917635,-0.03086840232784939,-0.04400970335027917,0.9985397131896442,0.00208984375,0.0001171875,-0.00017578125,0.61328125,-0.15234375,9.46484375
88,631000000,imu2_frame,-0.0053944643325820555,-0.030876565147890712,-0.044475894749682034,0.998518618887724,0.00208984375,0.0001171875,-0.00017578125,0.61328125,-0.15234375,9.46484375
88,651000000,imu2_frame,-0.005570408301012269,-0.03087833889938155,-0.04493083440210034,0.9984972302706233,0.00208984375,0.0001171875,-0.00017578125,0.61328125,-0.421875,9.4609375
88,671000000,imu2_frame,-0.005642952108953718,-0.03086390454028471,-0.04538356080439951,0.9984767943706742,0.00208984375,0.0001171875,-0.00017578125,0.57421875,-0.23046875,9.46484375
88,691000000,imu2_frame,-0.005717294179310357,-0.030849085901648202,-0.04591381383251974,0.9984525868290656,0.00208984375,0.0001171875,-0.00017578125,0.57421875,-0.23046875,9.46484375
88,711000000,imu2_frame,-0.0057897053772611,-0.030834566337015284,-0.046400754300201644,0.9984301071336066,0.00208984375,0.0001171875,-0.00017578125,0.57421875,-0.23046875,9.46484375
88,731000000,imu2_frame,-0.005862477003687363,-0.030819920674761192,-0.04691835784587476,0.9984059452697731,0.00208984375,0.0001171875,-0.00017578125,0.57421875,-0.23046875,9.46484375
88,751000000,imu2_frame,-0.005855309904699845,-0.030829703717021796,-0.04743362726946176,0.998381337825734,0.00208984375,0.0001171875,-0.00017578125,0.61328125,-0.078125,9.46484375
88,771000000,imu2_frame,-0.005847639859676578,-0.03083951535562738,-0.047924758503300684,0.998357624763342,0.00208984375,0.0001171875,-0.00017578125,0.61328125,-0.078125,9.46484375
88,791000000,imu2_frame,-0.005839845568777509,-0.030849283680413953,-0.04840411182903191,0.9983342425551579,0.00208984375,0.0001171875,-0.00017578125,0.61328125,-0.078125,9.46484375
88,811000000,imu2_frame,-0.00583396558129598,-0.030858623496596228,-0.04893772731619586,0.9983079730457016,0.00208984375,0.0001171875,-0.00017578125,0.61328125,-0.078125,9.46484375
88,831000000,imu2_frame,-0.005824864882506203,-0.030868505895396074,-0.04935956213301663,0.9982869526939253,0.00208984375,0.0001171875,-0.00017578125,0.61328125,-0.078125,9.46484375
88,851000000,imu2_frame,-0.005820030378046782,-0.030877517457735967,-0.049911852572702385,0.9982592414472339,0.00208984375,0.0001171875,-0.00017578125,0.61328125,-0.078125,9.46484375
88,871000000,imu2_frame,-0.005812366698778674,-0.0308869972165226,-0.050365232306677825,0.9982362211275445,0.00208984375,0.0001171875,-0.00017578125,0.61328125,-0.078125,9.46484375
88,891000000,imu2_frame,-0.005805437857452816,-0.030896273378118653,-0.05083502187185494,0.9982121606822449,0.00208984375,0.0001171875,-0.00017578125,0.61328125,-0.078125,9.46484375
88,911000000,imu2_frame,-0.005715239958480703,-0.03089045137072686,-0.05130405912697396,0.9981888646761322,0.00208984375,0.0001171875,-0.00017578125,0.57421875,0.078125,9.42578125
88,931000000,imu2_frame,-0.00562705168423494,-0.030884574150950916,-0.051804328103688665,0.9981637094978872,0.00208984375,0.0001171875,-0.00017578125,0.57421875,0.078125,9.42578125
88,951000000,imu2_frame,-0.0055380019216223035,-0.030879161261669258,-0.05224337194326972,0.9981414919852242,0.00208984375,0.0001171875,-0.00017578125,0.57421875,0.078125,9.42578125
88,971000000,imu2_frame,-0.005449908030444273,-0.030873872308459296,-0.05268024747199552,0.9981191782735317,0.00208984375,0.0001171875,-0.00017578125,0.57421875,0.078125,9.42578125
88,991000000,imu2_frame,-0.005363752224509329,-0.03086853270571955,-0.05314704096650119,0.9980950635521524,0.00208984375,0.0001171875,-0.00017578125,0.57421875,0.078125,9.42578125
89,11000000,imu2_frame,-0.005009036061896749,-0.030977478985582146,-0.05437793497147498,0.9980272268538902,0.02748046875,-0.0096484375,-0.07830078125,0.57421875,0.078125,9.42578125
89,31000000,imu2_frame,-0.004657892930222542,-0.031085645973109834,-0.05559422407141404,0.9979585506912512,0.02748046875,-0.0096484375,-0.07830078125,0.57421875,0.078125,9.42578125
89,51000000,imu2_frame,-0.004313498964895728,-0.031192582638346678,-0.056898928587694915,0.9978832238496658,0.02748046875,-0.0096484375,-0.07830078125,0.57421875,0.078125,9.42578125
89,71000000,imu2_frame,-0.003971781300916824,-0.03129890463329381,-0.05816252642035033,0.9978084605987543,0.02748046875,-0.0096484375,-0.07830078125,0.57421875,0.078125,9.42578125
89,91000000,imu2_frame,-0.0037889598745282286,-0.031125815464371077,-0.060118705584315785,0.9976986361790886,0.00794921875,0.0176953125,-0.14861328125,0.57421875,0.078125,9.42578125
89,111000000,imu2_frame,-0.003747265696299867,-0.031157197926365728,-0.061093723062904774,0.9976385838666685,-0.0018164062499999999,-0.0037890625,-0.05095703125,0.57421875,0.078125,9.42578125
89,131000000,imu2_frame,-0.003726668136078025,-0.031187014633539123,-0.062058916020789855,0.9975781538331598,-0.0018164062499999999,-0.0037890625,-0.05095703125,0.57421875,0.0390625,9.42578125
89,151000000,imu2_frame,-0.0037082834268471012,-0.03121631453703064,-0.06307768357598738,0.9975134065141376,-0.0018164062499999999,-0.0037890625,-0.05095703125,0.57421875,0.0390625,9.42578125
89,171000000,imu2_frame,-0.0036081028066243174,-0.03119361305627516,-0.06474251985050435,0.9974078133953229,0.00404296875,0.0020703125,-0.11736328125,0.57421875,0.0390625,9.42578125
89,191000000,imu2_frame,-0.00350714886424998,-0.03117139632048611,-0.0663345687383481,0.9973042509427966,0.00404296875,0.0020703125,-0.11736328125,0.57421875,0.0390625,9.42578125
89,211000000,imu2_frame,-0.0035283664503868877,-0.03113993033634574,-0.06790717666360482,0.9971993134406066,0.00404296875,0.0020703125,-0.11736328125,0.57421875,-0.19140625,9.46484375
89,231000000,imu2_frame,-0.0035500063429593763,-0.031108649054488954,-0.06948516390287875,0.9970915010200215,0.00404296875,0.0020703125,-0.11736328125,0.57421875,-0.19140625,9.46484375
89,251000000,imu2_frame,-0.0034691652677906622,-0.031103675475669265,-0.07065960554700887,0.9970094013639942,0.01576171875,0.0001171875,-0.07830078125,0.57421875,-0.19140625,9.46484375
89,271000000,imu2_frame,-0.0033886282221855663,-0.03109885550776245,-0.07180621334739402,0.9969279041683946,0.01576171875,0.0001171875,-0.07830078125,0.57421875,-0.19140625,9.46484375
89,291000000,imu2_frame,-0.003247946016697787,-0.031077978387516476,-0.07294560980176851,0.996846301150115,0.01576171875,0.0001171875,-0.07830078125,0.53515625,-0.078125,9.46484375
89,311000000,imu2_frame,-0.0031090043905910463,-0.031057359916366847,-0.07408475876972827,0.9967633736272394,0.01576171875,0.0001171875,-0.07830078125,0.53515625,-0.078125,9.46484375
89,331000000,imu2_frame,-0.002972204659870335,-0.031036957716872166,-0.07523710565885462,0.9966781081107478,0.01576171875,0.0001171875,-0.07830078125,0.53515625,-0.078125,9.46484375
89,351000000,imu2_frame,-0.0028365491991771343,-0.031016864590528524,-0.07637117158950354,0.9965928718637617,0.01576171875,0.0001171875,-0.07830078125,0.53515625,-0.078125,9.46484375
89,371000000,imu2_frame,-0.002703845206627487,-0.03099691196788354,-0.07754557246004207,0.9965031685154836,0.01576171875,0.0001171875,-0.07830078125,0.53515625,-0.078125,9.46484375
89,391000000,imu2_frame,-0.002574993239707843,-0.03097703719748683,-0.07878988436010631,0.9964065167886057,0.01576171875,0.0001171875,-0.07830078125,0.53515625,-0.078125,9.46484375
89,411000000,imu2_frame,-0.0024446761179275816,-0.030957683453924866,-0.07993363234160741,0.9963163452511064,0.01576171875,0.0001171875,-0.07830078125,0.53515625,-0.078125,9.46484375
89,431000000,imu2_frame,-0.0023151420708091295,-0.030938640198900923,-0.08104958052780817,0.9962270856366541,0.01576171875,0.0001171875,-0.07830078125,0.53515625,-0.078125,9.46484375
89,451000000,imu2_frame,-0.002189763876735978,-0.03091965488157186,-0.08224687299741469,0.9961298267586991,0.01576171875,0.0001171875,-0.07830078125,0.53515625,-0.078125,9.46484375
89,471000000,imu2_frame,-0.0020640962171300705,-0.03090105171251243,-0.08338287036220902,0.996036224963744,0.01576171875,0.0001171875,-0.07830078125,0.53515625,-0.078125,9.46484375
89,491000000,imu2_frame,-0.0019382544573298378,-0.030882797409671283,-0.08446171705088672,0.9959461402840155,0.01576171875,0.0001171875,-0.07830078125,0.53515625,-0.078125,9.46484375
89,511000000,imu2_frame,-0.0018162600912973658,-0.03086463140543697,-0.08561359506828961,0.9958485768765101,0.01576171875,0.0001171875,-0.07830078125,0.53515625,-0.078125,9.46484375
89,531000000,imu2_frame,-0.0016958331887315147,-0.03084670277500016,-0.08676552170362328,0.9957496418885649,0.01576171875,0.0001171875,-0.07830078125,0.53515625,-0.078125,9.46484375
89,551000000,imu2_frame,-0.0015751144208705978,-0.030829103704728755,-0.08785795067677507,0.9956545916542552,0.01576171875,0.0001171875,-0.07830078125,0.53515625,-0.078125,9.46484375
89,571000000,imu2_frame,-0.0014579901405964288,-0.030811626520189192,-0.08901686813922267,0.9955523668409486,0.01576171875,0.0001171875,-0.07830078125,0.53515625,-0.078125,9.46484375
89,591000000,imu2_frame,-0.0013449989081041173,-0.030794268255682003,-0.09026026855754463,0.9954411021956318,0.01576171875,0.0001171875,-0.07830078125,0.53515625,-0.078125,9.46484375
89,611000000,imu2_frame,-0.0012306147943605124,-0.030777275886537968,-0.09141004426301336,0.9953368518667767,0.01576171875,0.0001171875,-0.07830078125,0.53515625,-0.078125,9.46484375
89,631000000,imu2_frame,-0.0011171428824705491,-0.030760531122231784,-0.09254113218206718,0.9952329780364593,0.01576171875,0.0001171875,-0.07830078125,0.53515625,-0.078125,9.46484375
89,651000000,imu2_frame,-0.001129742055749576,-0.030632946995700676,-0.09493729109665153,0.9950111843594903,-0.0018164062499999999,0.0098828125,-0.20720703125,0.53515625,-0.078125,9.46484375
89,671000000,imu2_frame,-0.0011449009115601582,-0.03050639880000042,-0.09739935683618742,0.9947770675493355,-0.0018164062499999999,0.0098828125,-0.20720703125,0.53515625,-0.078125,9.46484375
89,691000000,imu2_frame,-0.0011597846267347135,-0.03038097924536397,-0.09983553904474848,0.9945393487154528,-0.0018164062499999999,0.0098828125,-0.20720703125,0.53515625,-0.078125,9.46484375
89,711000000,imu2_frame,-0.001174107041561106,-0.030256689447065555,-0.10223636447975468,0.9942991903820105,-0.0018164062499999999,0.0098828125,-0.20720703125,0.53515625,-0.078125,9.46484375
89,731000000,imu2_frame,-0.0011886781353102093,-0.030133488130739725,-0.1046283774002491,0.9940540541539763,-0.0018164062499999999,0.0098828125,-0.20720703125,0.53515625,-0.078125,9.46484375
89,751000000,imu2_frame,-0.0012042379631133904,-0.0300113348525853,-0.10703621721590847,0.9938013472497425,-0.0018164062499999999,0.0098828125,-0.20720703125,0.53515625,-0.078125,9.46484375
89,771000000,imu2_frame,-0.001217859846102735,-0.02989033681518088,-0.1093630147010078,0.9935516169771843,-0.0018164062499999999,0.0098828125,-0.20720703125,0.53515625,-0.078125,9.46484375
89,791000000,imu2_frame,-0.0012309532980810747,-0.029770429330798626,-0.11165511108553543,0.993300227755896,-0.0018164062499999999,0.0098828125,-0.20720703125,0.53515625,-0.078125,9.46484375
89,811000000,imu2_frame,-0.001245045245283137,-0.029651539368593653,-0.11396349007791183,0.9930415696256989,-0.0018164062499999999,0.0098828125,-0.20720703125,0.53515625,-0.078125,9.46484375
89,831000000,imu2_frame,-0.0012598497096381071,-0.029533667398429556,-0.11627895891126788,0.9927766007431984,-0.0018164062499999999,0.0098828125,-0.20720703125,0.53515625,-0.078125,9.46484375
89,851000000,imu2_frame,-0.001271583903010141,-0.029416966043154535,-0.11847420119813423,0.9925204727529088,-0.0018164062499999999,0.0098828125,-0.20720703125,0.53515625,-0.078125,9.46484375
89,871000000,imu2_frame,-0.00128471345858317,-0.029301235513874667,-0.1206993447262999,0.9922557408709368,-0.0018164062499999999,0.0098828125,-0.20720703125,0.53515625,-0.078125,9.46484375
89,891000000,imu2_frame,-0.0012995459208466253,-0.02918645005824877,-0.12296541354680492,0.991980831157871,-0.0018164062499999999,0.0098828125,-0.20720703125,0.53515625,-0.078125,9.46484375
89,911000000,imu2_frame,-0.0013117639788203998,-0.029072791936212882,-0.125125822422759,0.9917139610831975,-0.0018164062499999999,0.0098828125,-0.20720703125,0.53515625,-0.078125,9.46484375
89,931000000,imu2_frame,-0.001324189112939828,-0.02896012768685091,-0.1272762494216558,0.9914435505164734,-0.0018164062499999999,0.0098828125,-0.20720703125,0.53515625,-0.078125,9.46484375
89,951000000,imu2_frame,-0.001339007597801631,-0.02884834639545106,-0.12949194291462446,0.9911598340777823,-0.0018164062499999999,0.0098828125,-0.20720703125,0.53515625,-0.078125,9.46484375
89,971000000,imu2_frame,-0.0013528926052183152,-0.028737590845009344,-0.1316591311273343,0.9908774867483966,-0.0018164062499999999,0.0098828125,-0.20720703125,0.53515625,-0.078125,9.46484375
89,991000000,imu2_frame,-0.001365319888977146,-0.02862787894108154,-0.13375938826167333,0.9905993168283526,-0.0018164062499999999,0.0098828125,-0.20720703125,0.53515625,-0.078125,9.46484375
90,11000000,imu2_frame,-0.0013787693632506023,-0.028519084745088817,-0.13587835384578265,0.9903140076543933,-0.0018164062499999999,0.0098828125,-0.20720703125,0.53515625,-0.078125,9.46484375
90,31000000,imu2_frame,-0.001393284662411432,-0.028411195360862368,-0.13801798337907226,0.9900211608849533,-0.0018164062499999999,0.0098828125,-0.20720703125,0.53515625,-0.078125,9.46484375
90,51000000,imu2_frame,-0.001406524837875666,-0.028304316327389605,-0.1400968698092662,0.9897321629788359,-0.0018164062499999999,0.0098828125,-0.20720703125,0.53515625,-0.078125,9.46484375
90,71000000,imu2_frame,-0.00142063506587762,-0.028198333593144748,-0.1421898837874428,0.9894366441198208,-0.0018164062499999999,0.0098828125,-0.20720703125,0.53515625,-0.078125,9.46484375
90,91000000,imu2_frame,-0.0014327832513817715,-0.028093381475738685,-0.14419768942747466,0.9891489955578942,-0.0018164062499999999,0.0098828125,-0.20720703125,0.53515625,-0.078125,9.46484375
90,111000000,imu2_frame,-0.0014452251986170111,-0.027989338882184984,-0.14619934012923066,0.9888580591666536,-0.0018164062499999999,0.0098828125,-0.20720703125,0.53515625,-0.078125,9.46484375
90,131000000,imu2_frame,-0.0014605029767632005,-0.027886063962691655,-0.14828512607342478,0.9885503304096924,-0.0018164062499999999,0.0098828125,-0.20720703125,0.53515625,-0.078125,9.46484375
90,151000000,imu2_frame,-0.001474152486575834,-0.027783779436741107,-0.15029734946803178,0.9882492576357147,-0.0018164062499999999,0.0098828125,-0.20720703125,0.53515625,-0.078125,9.46484375
90,171000000,imu2_frame,-0.0014888705857758892,-0.027682335628855144,-0.15233174234451155,0.9879405406363259,-0.0018164062499999999,0.0098828125,-0.20720703125,0.53515625,-0.078125,9.46484375
90,191000000,imu2_frame,-0.0015003807516427762,-0.02758195515150157,-0.15423562475233235,0.9876478910344914,-0.0018164062499999999,0.0098828125,-0.20720703125,0.53515625,-0.078125,9.46484375
90,211000000,imu2_frame,-0.0018436278300178197,-0.027572234704443543,-0.15455669956194323,0.9875973873650876,-0.02916015625,-0.0037890625,-0.04705078125,0.53515625,-0.078125,9.46484375
90,231000000,imu2_frame,-0.0018043008694690816,-0.02766081675141983,-0.15497894132127943,0.987528810446537,0.00990234375,-0.0076953125,-0.05876953125,0.53515625,-0.078125,9.46484375
90,251000000,imu2_frame,-0.001767219039659587,-0.027748372176530187,-0.15546383627622493,0.9874502014728124,0.00990234375,-0.0076953125,-0.05876953125,0.53515625,-0.078125,9.46484375
90,271000000,imu2_frame,-0.0017316316102543082,-0.027834964869440013,-0.15598430171141964,0.9873657446976193,0.00990234375,-0.0076953125,-0.05876953125,0.53515625,-0.078125,9.46484375
90,291000000,imu2_frame,-0.0018337589260800126,-0.027899352431031553,-0.15636817489790095,0.987303022046033,-0.00376953125,-0.0076953125,-0.04509765625,0.53515625,-0.078125,9.46484375
90,311000000,imu2_frame,-0.0016457605270805194,-0.027891103792237634,-0.15687742629687998,0.9872227970017737,0.02357421875,0.0040234375,-0.05876953125,0.53515625,-0.078125,9.46484375
90,331000000,imu2_frame,-0.001460015075044451,-0.027882883458337924,-0.1573947274970657,0.9871409792538014,0.02357421875,0.0040234375,-0.05876953125,0.53515625,-0.078125,9.46484375
90,351000000,imu2_frame,-0.0012750571105017072,-0.02787476294198284,-0.15786890694273825,0.9870657425121178,0.02357421875,0.0040234375,-0.05876953125,0.53515625,-0.078125,9.46484375
90,371000000,imu2_frame,-0.001094330317988089,-0.027866583308695556,-0.15842261536442812,0.9869774723452148,0.02357421875,0.0040234375,-0.05876953125,0.53515625,-0.078125,9.46484375
90,391000000,imu2_frame,-0.0009153845845144628,-0.027858468709514042,-0.15896980831792698,0.9868898965110471,0.02357421875,0.0040234375,-0.05876953125,0.53515625,-0.078125,9.46484375
90,411000000,imu2_frame,-0.0007361145972188326,-0.027850471401405986,-0.15943658069272637,0.9868149705568066,0.02357421875,0.0040234375,-0.05876953125,0.53515625,-0.078125,9.46484375
90,431000000,imu2_frame,-0.0005630684075894318,-0.027842416595818206,-0.16005563240735451,0.9867150943036977,0.02357421875,0.0040234375,-0.05876953125,0.53515625,-0.078125,9.46484375
90,451000000,imu2_frame,-0.0004870239783794275,-0.02779705965842128,-0.16124568746296622,0.9865226376300679,0.01185546875,0.0059765625,-0.11736328125,0.53515625,-0.078125,9.46484375
90,471000000,imu2_frame,-0.0006906605032612425,-0.027886074749376336,-0.16164492604650452,0.986454665814178,-0.01158203125,-0.0116015625,-0.03728515625,0.53515625,-0.078125,9.46484375
90,491000000,imu2_frame,-0.0008900257340829618,-0.027974254307614375,-0.16196115587745932,0.9864001383500324,-0.01158203125,-0.0116015625,-0.03728515625,0.53515625,-0.078125,9.46484375
90,511000000,imu2_frame,-0.0010873605597201729,-0.02806156974579281,-0.16227324831528678,0.9863461658219291,-0.01158203125,-0.0116015625,-0.03728515625,0.53515625,-0.078125,9.46484375
90,531000000,imu2_frame,-0.001255110240814337,-0.028050620782754193,-0.1636679648383111,0.9861158069200954,-0.01353515625,-0.0018359375,-0.14861328125,0.53515625,-0.078125,9.46484375
90,551000000,imu2_frame,-0.0014213229423821099,-0.028039738607661156,-0.16505338318288415,0.9858849494742231,-0.01353515625,-0.0018359375,-0.14861328125,0.53515625,-0.078125,9.46484375
90,571000000,imu2_frame,-0.001587338031140088,-0.028028849578974342,-0.1664761640081158,0.9856457531823475,-0.01353515625,-0.0018359375,-0.14861328125,0.53515625,-0.078125,9.46484375
90,591000000,imu2_frame,-0.0017526885619866667,-0.02801796167310957,-0.16791947022938167,0.9854009201458931,-0.01353515625,-0.0018359375,-0.14861328125,0.53515625,-0.078125,9.46484375
90,611000000,imu2_frame,-0.0019159147034815223,-0.02800716231320936,-0.16933153370678827,0.9851592560710768,-0.01353515625,-0.0018359375,-0.14861328125,0.53515625,-0.078125,9.46484375
90,631000000,imu2_frame,-0.002078518121938516,-0.027996353543425983,-0.17076474745820053,0.9849118158374512,-0.01353515625,-0.0018359375,-0.14861328125,0.53515625,-0.078125,9.46484375
90,651000000,imu2_frame,-0.0022389188367574905,-0.027985649359204955,-0.17216311016358296,0.9846682965197916,-0.01353515625,-0.0018359375,-0.14861328125,0.53515625,-0.078125,9.46484375
90,671000000,imu2_frame,-0.0023967538244518767,-0.0279750960432228,-0.1735134185777386,0.9844311774552572,-0.01353515625,-0.0018359375,-0.14861328125,0.53515625,-0.078125,9.46484375
90,691000000,imu2_frame,-0.002297290457451041,-0.02787371665795524,-0.17431235905785714,0.9842931371577833,0.01185546875,0.0118359375,-0.09392578125,0.53515625,-0.078125,9.46484375
90,711000000,imu2_frame,-0.002199351762740652,-0.02777326167566321,-0.17512114584742966,0.9841526269155624,0.01185546875,0.0118359375,-0.09392578125,0.53515625,-0.078125,9.46484375
90,731000000,imu2_frame,-0.0021404391260808502,-0.027665799792150773,-0.17592212022160408,0.9840129214898267,0.01185546875,0.0118359375,-0.09392578125,0.53515625,-0.15234375,9.50390625
90,751000000,imu2_frame,-0.0020818218579703083,-0.027559398073338088,-0.17670361119557743,0.9838759979723203,0.01185546875,0.0118359375,-0.09392578125,0.53515625,-0.15234375,9.50390625
90,771000000,imu2_frame,-0.002043467162839134,-0.027491162881551418,-0.17702143435572484,0.9838208536029394,0.01185546875,0.0079296875,-0.04705078125,0.53515625,-0.15234375,9.50390625
90,791000000,imu2_frame,-0.0020630772466417794,-0.02737267792269091,-0.17775702842368818,0.9836914755458621,0.00404296875,0.0118359375,-0.09001953125,0.53515625,-0.15234375,9.50390625
90,811000000,imu2_frame,-0.0020842044792510703,-0.027255233573634585,-0.17854576077188383,0.98355183881935,0.00404296875,0.0118359375,-0.09001953125,0.53515625,-0.15234375,9.50390625
90,831000000,imu2_frame,-0.0021051727176364934,-0.027138943308792893,-0.17932761534462022,0.983412757888936,0.00404296875,0.0118359375,-0.09001953125,0.53515625,-0.15234375,9.50390625
90,851000000,imu2_frame,-0.0025068106533275747,-0.027249711333579386,-0.17989478576159135,0.9833051587317012,-0.02916015625,-0.0174609375,-0.06853515625,0.53515625,-0.15234375,9.50390625
90,871000000,imu2_frame,-0.002903708907495449,-0.02735952099555355,-0.1804311683476953,0.9832027352352922,-0.02916015625,-0.0174609375,-0.06853515625,0.53515625,-0.15234375,9.50390625
90,891000000,imu2_frame,-0.0032992351818091387,-0.027468015721191095,-0.18105625707370646,0.9830835442290832,-0.02916015625,-0.0174609375,-0.06853515625,0.53515625,-0.15234375,9.50390625
90,911000000,imu2_frame,-0.00368856704087804,-0.027575750989503975,-0.1815956847560757,0.9829796435880664,-0.02916015625,-0.0174609375,-0.06853515625,0.53515625,-0.15234375,9.50390625
90,931000000,imu2_frame,-0.004074200266918458,-0.027682469805854804,-0.18213771613695692,0.9828748313585237,-0.02916015625,-0.0174609375,-0.06853515625,0.53515625,-0.15234375,9.50390625
90,951000000,imu2_frame,-0.004454274428413623,-0.02778848054982813,-0.18261516682214735,0.9827815935570667,-0.02916015625,-0.0174609375,-0.06853515625,0.53515625,-0.15234375,9.50390625
90,971000000,imu2_frame,-0.004832713952340984,-0.027893187595337852,-0.18316570436245433,0.9826743813222323,-0.02916015625,-0.0174609375,-0.06853515625,0.53515625,-0.15234375,9.50390625
90,991000000,imu2_frame,-0.005207183382897674,-0.027996959227813045,-0.1837052026041324,0.9825688037238858,-0.02916015625,-0.0174609375,-0.06853515625,0.53515625,-0.15234375,9.50390625
91,11000000,imu2_frame,-0.005577280429912799,-0.02809990135208661,-0.18421842054970455,0.9824677414639024,-0.02916015625,-0.0174609375,-0.06853515625,0.53515625,-0.15234375,9.50390625
91,31000000,imu2_frame,-0.005943332629488339,-0.02820198710085281,-0.1847157770807419,0.9823692821023449,-0.02916015625,-0.0174609375,-0.06853515625,0.53515625,-0.15234375,9.50390625
91,51000000,imu2_frame,-0.006305459507099548,-0.028303220844821585,-0.1852003266973249,0.9822728785125943,-0.02916015625,-0.0174609375,-0.06853515625,0.53515625,-0.15234375,9.50390625
91,71000000,imu2_frame,-0.006663058733398076,-0.02840377168092636,-0.18565012803763753,0.982182701620336,-0.02916015625,-0.0174609375,-0.06853515625,0.53515625,-0.15234375,9.50390625
91,91000000,imu2_frame,-0.006192498522328536,-0.028462049901497578,-0.18577655497309012,0.9821601887165791,0.05287109375,0.0020703125,-0.03728515625,0.53515625,-0.15234375,9.50390625
91,111000000,imu2_frame,-0.006674937091405729,-0.02841944600126458,-0.18645371365880248,0.9820299348628067,-0.04478515625,-0.0057421875,-0.09197265625,0.53515625,-0.15234375,9.50390625
91,131000000,imu2_frame,-0.007153500773664715,-0.028377236194160382,-0.18715634857854124,0.981894119077719,-0.04478515625,-0.0057421875,-0.09197265625,0.53515625,-0.15234375,9.50390625
91,151000000,imu2_frame,-0.0076277619790922615,-0.028335498745134444,-0.1878681848259795,0.9817558056300184,-0.04478515625,-0.0057421875,-0.09197265625,0.53515625,-0.15234375,9.50390625
91,171000000,imu2_frame,-0.007408058431119335,-0.028484952268435695,-0.18847933522054117,0.9816360162297271,0.02748046875,-0.0116015625,-0.08416015625,0.53515625,-0.15234375,9.50390625
91,191000000,imu2_frame,-0.007662283864005089,-0.02840431172125479,-0.18896333972752846,0.9815433463279387,-0.02330078125,0.0020703125,-0.07048828125,0.53515625,-0.15234375,9.50390625
91,211000000,imu2_frame,-0.00791360899861589,-0.02832468181334089,-0.18942896339595233,0.9814538985706486,-0.02330078125,0.0020703125,-0.07048828125,0.53515625,-0.15234375,9.50390625
91,231000000,imu2_frame,-0.008163607259513376,-0.028245618878661737,-0.18992993129423028,0.981357305841885,-0.02330078125,0.0020703125,-0.07048828125,0.53515625,-0.15234375,9.50390625
91,251000000,imu2_frame,-0.008411946748790092,-0.0281671886693381,-0.19045417954407529,0.9812558555894352,-0.02330078125,0.0020703125,-0.07048828125,0.53515625,-0.15234375,9.50390625
91,271000000,imu2_frame,-0.008658186150699439,-0.02808950446847836,-0.19098569562673937,0.9811526280947658,-0.02330078125,0.0020703125,-0.07048828125,0.53515625,-0.15234375,9.50390625
91,291000000,imu2_frame,-0.008899511482494165,-0.02801345134407669,-0.19142520733977939,0.9810669881481532,-0.02330078125,0.0020703125,-0.07048828125,0.53515625,-0.15234375,9.50390625
91,311000000,imu2_frame,-0.009140169680515883,-0.027937711617959108,-0.19192034085025966,0.9809701954369884,-0.02330078125,0.0020703125,-0.07048828125,0.53515625,-0.15234375,9.50390625
91,331000000,imu2_frame,-0.009059207307622765,-0.02806353919883022,-0.19253342622839312,0.9808472094650365,0.01185546875,-0.0116015625,-0.08416015625,0.53515625,-0.15234375,9.50390625
91,351000000,imu2_frame,-0.009036909230449863,-0.028057986848321587,-0.19299234449637004,0.9807573800952888,0.00404296875,0.0001171875,-0.06853515625,0.53515625,-0.15234375,9.50390625
91,371000000,imu2_frame,-0.009014538480606009,-0.028052563295639907,-0.1934363444756469,0.9806702669217746,0.00404296875,0.0001171875,-0.06853515625,0.53515625,-0.15234375,9.50390625
91,391000000,imu2_frame,-0.008992613175323762,-0.028047100701594684,-0.1938836596267334,0.9805822859812728,0.00404296875,0.0001171875,-0.06853515625,0.53515625,-0.15234375,9.50390625
91,411000000,imu2_frame,-0.009191554923201223,-0.027900448832141635,-0.19457844816868888,0.9804469938662282,-0.02134765625,0.0098828125,-0.09392578125,0.53515625,-0.15234375,9.50390625
91,431000000,imu2_frame,-0.00906443285243761,-0.027956251124870237,-0.19491542250754948,0.980379652047517,0.01576171875,-0.0037890625,-0.05876953125,0.53515625,-0.15234375,9.50390625
91,451000000,imu2_frame,-0.008939730857965893,-0.028011050899126134,-0.1952902278057243,0.9803046409985531,0.01576171875,-0.0037890625,-0.05876953125,0.53515625,-0.15234375,9.50390625
91,471000000,imu2_frame,-0.00885729379225922,-0.028213450962968244,-0.19528152522591152,0.980301318695879,0.01576171875,-0.0194140625,-0.01970703125,0.53515625,-0.15234375,9.50390625
91,491000000,imu2_frame,-0.008151931667175486,-0.02849956248117764,-0.1956069361268552,0.9802342819385269,0.07826171875,-0.0155078125,-0.05486328125,0.53515625,-0.15234375,9.50390625
91,511000000,imu2_frame,-0.007988226003413042,-0.028577063321796017,-0.19581546735258237,0.9801917375915339,0.02162109375,-0.0057421875,-0.04119140625,0.53515625,-0.15234375,9.50390625
91,531000000,imu2_frame,-0.008065902902113037,-0.028507839854358622,-0.19625701838376136,0.9801048040961375,-0.00572265625,0.0040234375,-0.06462890625,0.53515625,-0.15234375,9.50390625
91,551000000,imu2_frame,-0.00816237440496646,-0.028316804252543067,-0.1965436889778253,0.9800520968621944,-0.00962890625,0.0157421875,-0.04900390625,0.53515625,-0.15234375,9.50390625
91,571000000,imu2_frame,-0.0076621432352338105,-0.028364766034218575,-0.19658844900288927,0.9800457710369987,0.05482421875,0.0040234375,-0.02556640625,0.53515625,-0.15234375,9.50390625
91,591000000,imu2_frame,-0.007169948726740524,-0.028411278967902114,-0.19673808285288147,0.9800181211681939,0.05482421875,0.0040234375,-0.02556640625,0.53515625,-0.15234375,9.50390625
91,611000000,imu2_frame,-0.006681879062527844,-0.028457419369609927,-0.19685906740208692,0.9799959363980019,0.05482421875,0.0040234375,-0.02556640625,0.53515625,-0.15234375,9.50390625
91,631000000,imu2_frame,-0.006199335309252623,-0.02850283618232296,-0.19700140605949823,0.9799691845062618,0.05482421875,0.0040234375,-0.02556640625,0.53515625,-0.15234375,9.50390625
91,651000000,imu2_frame,-0.006247335591164188,-0.028520939119041484,-0.1971939038455224,0.9799296357983783,0.00208984375,-0.0037890625,-0.02947265625,0.53515625,-0.15234375,9.50390625
91,671000000,imu2_frame,-0.005868318515245925,-0.028723373886344973,-0.19771757823889055,0.9798205396325069,0.04701171875,-0.0135546875,-0.06462890625,0.53515625,-0.15234375,9.50390625
91,691000000,imu2_frame,-0.006231637141038146,-0.028676147584697286,-0.1982535771455869,0.979711367907519,-0.03111328125,-0.0037890625,-0.06462890625,0.53515625,-0.15234375,9.50390625
91,711000000,imu2_frame,-0.006114990923073963,-0.028587919119563307,-0.19924817643968362,0.9795128901407499,0.01380859375,0.0098828125,-0.11345703125,0.53515625,-0.15234375,9.50390625
91,731000000,imu2_frame,-0.006339112134574623,-0.028451102524677366,-0.19976569538390807,0.9794100353632585,-0.01939453125,0.0079296875,-0.06462890625,0.53515625,-0.15234375,9.50390625
91,751000000,imu2_frame,-0.006696216726856836,-0.0283276686564698,-0.20044721503300061,0.9792719835957477,-0.03306640625,0.0040234375,-0.08220703125,0.53515625,-0.15234375,9.50390625
91,771000000,imu2_frame,-0.00705344181775624,-0.028184853781705748,-0.20085201139497905,0.9791906517601252,-0.03306640625,0.0059765625,-0.05486328125,0.53515625,-0.15234375,9.50390625
91,791000000,imu2_frame,-0.0074385139765855935,-0.027978516171651566,-0.20172309504230865,0.9790146393538784,-0.03892578125,0.0118359375,-0.10369140625,0.53515625,-0.15234375,9.50390625
91,811000000,imu2_frame,-0.0074337572651917505,-0.02807050754598536,-0.20234422857071227,0.9788838536941736,0.00599609375,-0.0096484375,-0.08025390625,0.53515625,-0.15234375,9.50390625
91,831000000,imu2_frame,-0.00825258372928628,-0.027774597857620632,-0.2031066780221719,0.9787278191195121,-0.08384765625,0.0118359375,-0.09392578125,0.53515625,-0.15234375,9.50390625
91,851000000,imu2_frame,-0.008287719194514443,-0.027604166604939504,-0.20421892875611855,0.9785008701244486,-0.00572265625,0.0157421875,-0.13298828125,0.53515625,-0.15234375,9.50390625
91,871000000,imu2_frame,-0.008210122283164988,-0.027674750955436936,-0.20480371596620503,0.9783772993983887,0.01185546875,-0.0057421875,-0.08025390625,0.53515625,-0.15234375,9.50390625
91,891000000,imu2_frame,-0.008106879202706073,-0.027613356341779437,-0.2060106167379305,0.9781264779425982,0.00990234375,0.0079296875,-0.14470703125,0.53515625,-0.15234375,9.50390625
91,911000000,imu2_frame,-0.008192341937352444,-0.0276320081410887,-0.20743513484401355,0.9778241265646487,-0.00767578125,-0.0037890625,-0.16814453125,0.53515625,-0.15234375,9.50390625
91,931000000,imu2_frame,-0.00835944667678867,-0.027632394351067444,-0.20859931968187412,0.9775750069748839,-0.01548828125,-0.0037890625,-0.14275390625,0.53515625,-0.15234375,9.50390625
91,951000000,imu2_frame,-0.008351038100856956,-0.02771037443449294,-0.2101627349782865,0.9772379547161403,0.00208984375,-0.0076953125,-0.18572265625,0.53515625,-0.15234375,9.50390625
91,971000000,imu2_frame,-0.00815135514055645,-0.027746775322863272,-0.21055543682676234,0.9771540717262792,0.02357421875,0.0001171875,-0.06658203125,0.53515625,-0.15234375,9.50390625
91,991000000,imu2_frame,-0.008519569107128892,-0.027563436718198074,-0.21159970971686515,0.9769305178702574,-0.03892578125,0.0098828125,-0.13298828125,0.53515625,-0.15234375,9.50390625
92,11000000,imu2_frame,-0.008656970776238724,-0.027609162676048394,-0.21260366843068745,0.9767100240926788,-0.01158203125,-0.0076953125,-0.13103515625,0.53515625,-0.15234375,9.50390625
92,31000000,imu2_frame,-0.008687418397094858,-0.027537316852563557,-0.2129725982698053,0.9766314030013388,-0.0018164062499999999,0.0059765625,-0.06658203125,0.53515625,-0.15234375,9.50390625
92,51000000,imu2_frame,-0.008619178510072956,-0.02752834400575718,-0.21377047637680852,0.9764579271365176,0.00794921875,0.0020703125,-0.11150390625,0.53515625,-0.15234375,9.50390625
92,71000000,imu2_frame,-0.008810457880404533,-0.027522066397122364,-0.21452631600996366,0.9762906183265121,-0.01744140625,-0.0037890625,-0.10759765625,0.53515625,-0.15234375,9.50390625
92,91000000,imu2_frame,-0.008863074021568053,-0.027742784168859436,-0.2148887470472033,0.9762041847062178,0.00208984375,-0.0233203125,-0.06853515625,0.53515625,-0.15234375,9.50390625
92,111000000,imu2_frame,-0.009037346131776692,-0.027617809791166535,-0.21525341547485313,0.9761257859946348,-0.01744140625,0.0079296875,-0.06853515625,0.53515625,-0.15234375,9.50390625
92,131000000,imu2_frame,-0.009113708519370807,-0.027614720499558168,-0.21574148265159562,0.9760174077300294,-0.00572265625,-0.0018359375,-0.08220703125,0.53515625,-0.15234375,9.50390625
92,151000000,imu2_frame,-0.00902218644870537,-0.027706988387061624,-0.21589917468952746,0.9759807730250555,0.01380859375,-0.0076953125,-0.04900390625,0.53515625,-0.15234375,9.50390625
92,171000000,imu2_frame,-0.00905640969005615,-0.027652034494737833,-0.21609804809097624,0.9759380001020034,-0.0018164062499999999,0.0040234375,-0.05291015625,0.53515625,-0.15234375,9.50390625
92,191000000,imu2_frame,-0.009060877816527533,-0.02772270347584903,-0.21621660225889125,0.9759096951628283,0.00404296875,-0.0076953125,-0.04509765625,0.53515625,-0.15234375,9.50390625
92,211000000,imu2_frame,-0.009444364014104327,-0.02766817808432925,-0.21598068982991453,0.9759598442202718,-0.03501953125,-0.0037890625,-0.00798828125,0.53515625,-0.15234375,9.50390625
92,231000000,imu2_frame,-0.009320428872192208,-0.02772502742901868,-0.21552661679863275,0.976059798327456,0.01771484375,-0.0037890625,0.01349609375,0.53515625,-0.15234375,9.50390625
92,251000000,imu2_frame,-0.009404433501974464,-0.027717625321653085,-0.21562977331741556,0.9760364187550152,-0.00572265625,-0.0018359375,-0.04314453125,0.53515625,-0.15234375,9.50390625
92,271000000,imu2_frame,-0.009248903401725355,-0.02760440604762513,-0.21565460275115808,0.9760356278665567,0.01576171875,0.0137890625,-0.03533203125,0.53515625,-0.15234375,9.50390625
92,291000000,imu2_frame,-0.009107116363686026,-0.027629989741493596,-0.21628416266216516,0.9758969233889148,0.01576171875,0.0001171875,-0.09783203125,0.53515625,-0.15234375,9.50390625
92,311000000,imu2_frame,-0.009265735637306276,-0.027666309878575348,-0.21627007664287698,0.9758975229959785,-0.01158203125,-0.0076953125,-0.03142578125,0.53515625,-0.15234375,9.50390625
92,331000000,imu2_frame,-0.008949409493636443,-0.027748593452170053,-0.21653156801314447,0.9758401527324598,0.03529296875,-0.0018359375,-0.06072265625,0.53515625,-0.15234375,9.50390625
92,351000000,imu2_frame,-0.009030515707569575,-0.02770225569496051,-0.21657451214693152,0.9758311921145917,-0.00572265625,0.0020703125,-0.03728515625,0.53515625,-0.15234375,9.50390625
92,371000000,imu2_frame,-0.009276277016483422,-0.02769918843699189,-0.21669240315622448,0.9758028018298706,-0.02134765625,-0.0057421875,-0.04509765625,0.53515625,-0.15234375,9.50390625
92,391000000,imu2_frame,-0.009716658967286395,-0.027358214136738737,-0.21762551243620196,0.9756004566392138,-0.05064453125,0.0235546875,-0.12908203125,0.53515625,-0.15234375,9.50390625
92,411000000,imu2_frame,-0.009742307859845707,-0.02740716993068285,-0.21792854798632497,0.9755311796383173,0.00013671875,-0.0057421875,-0.06658203125,0.53515625,-0.15234375,9.50390625
92,431000000,imu2_frame,-0.009835120038469381,-0.027321995288265385,-0.2182878257000932,0.9754523074648103,-0.00962890625,0.0059765625,-0.07244140625,0.53515625,-0.15234375,9.50390625
92,451000000,imu2_frame,-0.009802427203463575,-0.027284948720126687,-0.21852711386953724,0.9754000945756112,0.00404296875,0.0040234375,-0.06072265625,0.53515625,-0.15234375,9.50390625
92,471000000,imu2_frame,-0.009959160757765496,-0.02724662335887116,-0.21904968755535037,0.9752823545078853,-0.01548828125,0.0001171875,-0.09001953125,0.53515625,-0.15234375,9.50390625
92,491000000,imu2_frame,-0.009816580349492052,-0.027157848184912948,-0.21986513514621764,0.9751027681118246,0.01185546875,0.0118359375,-0.12126953125,0.53515625,-0.15234375,9.50390625
92,511000000,imu2_frame,-0.009871043499491548,-0.027083486829274344,-0.22020461350180814,0.9750276793168074,-0.00572265625,0.0059765625,-0.07244140625,0.53515625,-0.15234375,9.50390625
92,531000000,imu2_frame,-0.009883000054149521,-0.02697917387002499,-0.22038932102718972,0.9749887166856829,-0.0018164062499999999,0.0098828125,-0.05681640625,0.53515625,-0.15234375,9.50390625
92,551000000,imu2_frame,-0.010100552269205167,-0.02696735170243082,-0.22034599956970524,0.9749966057682673,-0.01939453125,-0.0037890625,-0.03337890625,0.53515625,-0.15234375,9.50390625
92,571000000,imu2_frame,-0.010130593348909749,-0.02703526506559037,-0.21980594745801302,0.975116306387765,0.00208984375,-0.0076953125,0.01740234375,0.53515625,-0.15234375,9.50390625
92,591000000,imu2_frame,-0.0103489251041505,-0.026922569292022747,-0.21955854274993214,0.9751728674022013,-0.02134765625,0.0059765625,-0.01189453125,0.53515625,-0.15234375,9.50390625
92,611000000,imu2_frame,-0.00999957738363393,-0.026938261189974822,-0.2193031448307983,0.9752335459793882,0.03724609375,0.0059765625,-0.01189453125,0.53515625,-0.15234375,9.50390625
92,631000000,imu2_frame,-0.010019871980719254,-0.0268525136973578,-0.21930592438555857,0.9752350774059653,-0.0018164062499999999,0.0079296875,-0.03728515625,0.53515625,-0.15234375,9.50390625
92,651000000,imu2_frame,-0.010233507843409921,-0.026843299221321254,-0.21936554274540737,0.9752197040975672,-0.01939453125,-0.0037890625,-0.04314453125,0.53515625,-0.15234375,9.50390625
92,671000000,imu2_frame,-0.01059090088908296,-0.02676141741604957,-0.21929179997170856,0.9752347234493908,-0.03501953125,0.0001171875,-0.02947265625,0.53515625,-0.15234375,9.50390625
92,691000000,imu2_frame,-0.010121442099523125,-0.02682648219597537,-0.21935480389978984,0.9752237518994807,0.04896484375,0.0040234375,-0.04509765625,0.53515625,-0.15234375,9.50390625
92,711000000,imu2_frame,-0.010389038223438729,-0.026805501187565178,-0.21946980291733034,0.9751956411911938,-0.02525390625,-0.0037890625,-0.04900390625,0.53515625,-0.15234375,9.50390625
92,731000000,imu2_frame,-0.010900471459289598,-0.02672933322910833,-0.21952617338370256,0.9751794612616701,-0.05064453125,-0.0037890625,-0.04314453125,0.53515625,-0.15234375,9.50390625
92,751000000,imu2_frame,-0.010443482657360947,-0.026771613767799584,-0.21954516416822747,0.9751790272850414,0.04701171875,0.0059765625,-0.04119140625,0.53515625,-0.15234375,9.50390625
92,771000000,imu2_frame,-0.010336493093270444,-0.026796005804555864,-0.21981946140401087,0.9751177033422712,0.01185546875,0.0001171875,-0.06658203125,0.53515625,-0.15234375,9.50390625
92,791000000,imu2_frame,-0.010354148297416326,-0.026811081087046655,-0.21986737277360008,0.9751062998122892,0.00013671875,-0.0018359375,-0.04314453125,0.53515625,-0.15234375,9.50390625
92,811000000,imu2_frame,-0.01066936323462895,-0.026642697190138766,-0.22050559654404248,0.9749633907318562,-0.03501953125,0.0098828125,-0.10369140625,0.53515625,-0.15234375,9.50390625
92,831000000,imu2_frame,-0.011300615243650424,-0.02642173649505916,-0.2206461257865084,0.9749304975797531,-0.06626953125,0.0079296875,-0.05291015625,0.53515625,-0.15234375,9.50390625
92,851000000,imu2_frame,-0.01101136707976962,-0.026432570379478524,-0.22127402868956098,0.9747911946902577,0.02748046875,0.0059765625,-0.10564453125,0.53515625,-0.15234375,9.50390625
92,871000000,imu2_frame,-0.010985857539415665,-0.02648052999871444,-0.2214109424219976,0.9747590917970007,0.00404296875,-0.0037890625,-0.05486328125,0.53515625,-0.15234375,9.50390625
92,891000000,imu2_frame,-0.011202446474014811,-0.02647373386079089,-0.22166302234505225,0.9746995183815993,-0.02134765625,-0.0037890625,-0.06658203125,0.53515625,-0.15234375,9.50390625
92,911000000,imu2_frame,-0.011315669779073629,-0.02660808100059307,-0.2217172111319887,0.9746822271544557,-0.00767578125,-0.0155078125,-0.04705078125,0.53515625,-0.15234375,9.50390625
92,931000000,imu2_frame,-0.010987312993140801,-0.026564352220576175,-0.22190071562533556,0.9746454158047715,0.03138671875,0.0118359375,-0.06072265625,0.53515625,-0.15234375,9.50390625
92,951000000,imu2_frame,-0.01091725265969126,-0.02658119631905441,-0.22197524789375875,0.9746287718506553,0.00794921875,0.0001171875,-0.04900390625,0.53515625,-0.15234375,9.50390625
92,971000000,imu2_frame,-0.010865542730578581,-0.026497844712251396,-0.22269357217844532,0.974467740418932,0.00208984375,0.0098828125,-0.11541015625,0.53515625,-0.15234375,9.50390625
92,991000000,imu2_frame,-0.01098058160591204,-0.026474184799714254,-0.22293451842550502,0.9744119995469959,-0.01158203125,0.0001171875,-0.06658203125,0.53515625,-0.15234375,9.50390625
93,11000000,imu2_frame,-0.010687947135272775,-0.026562826750025154,-0.22303398296085625,0.9743900792114514,0.03138671875,-0.0018359375,-0.05291015625,0.53515625,-0.15234375,9.50390625
93,31000000,imu2_frame,-0.010449562267240912,-0.026718498114357735,-0.22326789639246022,0.974334837182486,0.02748046875,-0.0096484375,-0.06658203125,0.53515625,-0.15234375,9.50390625
93,51000000,imu2_frame,-0.010328650050431543,-0.026766656951828303,-0.223486855347899,0.974284604492171,0.01380859375,-0.0018359375,-0.06462890625,0.53515625,-0.15234375,9.50390625
93,71000000,imu2_frame,-0.010475410475348652,-0.026694214851388107,-0.22382305486771314,0.9742078447531234,-0.01548828125,0.0040234375,-0.07634765625,0.53515625,-0.15234375,9.50390625
93,91000000,imu2_frame,-0.010570203243126106,-0.026691790214461667,-0.22371846431162942,0.9742309109572497,-0.00767578125,-0.0018359375,-0.03142578125,0.53515625,-0.15234375,9.50390625
93,111000000,imu2_frame,-0.010459506453135141,-0.02671846475666565,-0.22404497226482015,0.9741563389767884,0.01185546875,0.0001171875,-0.07634765625,0.53515625,-0.15234375,9.50390625
93,131000000,imu2_frame,-0.010276831336505454,-0.026878288725627614,-0.22385765351487089,0.9741969489254618,0.02357421875,-0.0116015625,-0.02361328125,0.53515625,-0.15234375,9.50390625
93,151000000,imu2_frame,-0.010948317040735484,-0.026722935336466955,-0.22393278064158859,0.9741766414953218,-0.06822265625,0.0001171875,-0.04900390625,0.53515625,-0.15234375,9.50390625
93,171000000,imu2_frame,-0.01058209207480027,-0.02674692446939579,-0.2240230566600358,0.9741592741659052,0.03724609375,0.0059765625,-0.05291015625,0.53515625,-0.15234375,9.50390625
93,191000000,imu2_frame,-0.010534238842117703,-0.02665795053077823,-0.22400951907022335,0.9741653447189769,0.00404296875,0.0098828125,-0.04119140625,0.53515625,-0.15234375,9.50390625
93,211000000,imu2_frame,-0.010843312144779266,-0.026684423838448844,-0.22356410762379234,0.9742635443700634,-0.02720703125,-0.0096484375,0.00373046875,0.53515625,-0.15234375,9.50390625
93,231000000,imu2_frame,-0.010491070494360873,-0.026782395428402005,-0.22313018924534686,0.9743641821117681,0.03919921875,-0.0018359375,0.00177734375,0.53515625,-0.15234375,9.50390625
93,251000000,imu2_frame,-0.010439097847436223,-0.026812004654105225,-0.2228790395547591,0.974421405434891,0.00794921875,-0.0018359375,-0.01580078125,0.53515625,-0.15234375,9.50390625
93,271000000,imu2_frame,-0.010333178566911422,-0.02655771869192316,-0.2229564457625013,0.9744117898976479,0.00599609375,0.0274609375,-0.04900390625,0.53515625,-0.15234375,9.50390625
93,291000000,imu2_frame,-0.010680258467382148,-0.0265189775487527,-0.22280877189297632,0.974442880355941,-0.03306640625,-0.0037890625,-0.02556640625,0.53515625,-0.15234375,9.50390625
93,311000000,imu2_frame,-0.010704450168086535,-0.026594791314574772,-0.22293556487255317,0.9744115484416679,0.00013671875,-0.0076953125,-0.05486328125,0.53515625,-0.15234375,9.50390625
93,331000000,imu2_frame,-0.010792869069292286,-0.026633186100167388,-0.222609069435118,0.9744841658952894,-0.00572265625,-0.0057421875,-0.00798828125,0.53515625,-0.15234375,9.50390625
93,351000000,imu2_frame,-0.010509682321587012,-0.026740717132431185,-0.22327970608477518,0.9743308747419632,0.02943359375,-0.0037890625,-0.11150390625,0.53515625,-0.15234375,9.50390625
93,371000000,imu2_frame,-0.010300786421019786,-0.026907165170041242,-0.22334375940153373,0.974313842351637,0.02552734375,-0.0116015625,-0.04900390625,0.53515625,-0.15234375,9.50390625
93,391000000,imu2_frame,-0.010818285063483304,-0.02688425423036856,-0.22294810827073686,0.9743994779356473,-0.04869140625,-0.0096484375,-0.00017578125,0.53515625,-0.15234375,9.50390625
93,411000000,imu2_frame,-0.01059062330086754,-0.027014547864227096,-0.22325605923834388,0.9743278631524174,0.02552734375,-0.0076953125,-0.07439453125,0.53515625,-0.15234375,9.50390625
93,431000000,imu2_frame,-0.010555868963630758,-0.02713735158679487,-0.22311325024320489,0.9743575397897788,0.00794921875,-0.0116015625,-0.02751953125,0.53515625,-0.15234375,9.50390625
93,451000000,imu2_frame,-0.010660437285819729,-0.027129401796749567,-0.22329638336947977,0.9743146698111118,-0.00962890625,-0.0018359375,-0.06072265625,0.53515625,-0.15234375,9.50390625
93,471000000,imu2_frame,-0.011021118540250466,-0.027201435842600322,-0.2234392449216787,0.9742758955568247,-0.03306640625,-0.0155078125,-0.05681640625,0.53515625,-0.15234375,9.50390625
93,491000000,imu2_frame,-0.010563151067265108,-0.027319667594129383,-0.22334063639632643,0.9743002698019539,0.04896484375,-0.0018359375,-0.03337890625,0.53515625,-0.15234375,9.50390625
93,511000000,imu2_frame,-0.010852808212507826,-0.027185949561107394,-0.2230157612888146,0.9743752413301222,-0.02916015625,0.0059765625,-0.00798828125,0.53515625,-0.15234375,9.50390625
93,531000000,imu2_frame,-0.010526160278049231,-0.02697603738403172,-0.22272361968162066,0.9744514778031654,0.02943359375,0.0274609375,-0.01189453125,0.53515625,-0.15234375,9.50390625
93,551000000,imu2_frame,-0.010154019157758574,-0.02698000608993968,-0.22303896056579134,0.9743831880918626,0.03724609375,0.0079296875,-0.07439453125,0.53515625,-0.15234375,9.50390625
93,571000000,imu2_frame,-0.010236623778176199,-0.026957073998703954,-0.22266333817009804,0.9744688632942569,-0.00572265625,0.0001171875,-0.00212890625,0.53515625,-0.15234375,9.50390625
93,591000000,imu2_frame,-0.010531911980167768,-0.026887638501292783,-0.22274560295305026,0.9744488340035858,-0.02916015625,0.0001171875,-0.04900390625,0.53515625,-0.15234375,9.50390625
93,611000000,imu2_frame,-0.010600141172423255,-0.026948995624539906,-0.2226863654169102,0.9744599382731748,-0.00376953125,-0.0076953125,-0.03533203125,0.53515625,-0.15234375,9.50390625
93,631000000,imu2_frame,-0.010396477091628201,-0.027052317341278723,-0.22273656582466622,0.9744477962595965,0.02357421875,-0.0057421875,-0.04705078125,0.53515625,-0.15234375,9.50390625
93,651000000,imu2_frame,-0.010717924841113582,-0.026915751286798607,-0.22270380405451692,0.9744555834307765,-0.03306640625,0.0059765625,-0.03728515625,0.53515625,-0.15234375,9.50390625
93,671000000,imu2_frame,-0.01045447620828134,-0.027033239094911742,-0.2228268279045187,0.9744270689370539,0.02943359375,-0.0057421875,-0.05486328125,0.53515625,-0.15234375,9.50390625
93,691000000,imu2_frame,-0.01040647064224801,-0.02698276196112426,-0.22318368930915694,0.9743473080745259,0.00404296875,0.0059765625,-0.07830078125,0.53515625,-0.15234375,9.50390625
93,711000000,imu2_frame,-0.010485660018085985,-0.027001222260507135,-0.22314166816756772,0.9743555720874278,-0.00572265625,-0.0037890625,-0.03728515625,0.53515625,-0.15234375,9.50390625
93,731000000,imu2_frame,-0.010641142888497766,-0.026864068496755752,-0.22330985224571068,0.9743191457586304,-0.01744140625,0.0098828125,-0.05876953125,0.53515625,-0.15234375,9.50390625
93,751000000,imu2_frame,-0.01056254278906167,-0.026820676720954475,-0.2233386120328387,0.9743146044093276,0.00794921875,0.0059765625,-0.04509765625,0.53515625,-0.15234375,9.50390625
93,771000000,imu2_frame,-0.010671218714150794,-0.026755839760687915,-0.22359671935981895,0.9742560018913825,-0.01158203125,0.0040234375,-0.06853515625,0.53515625,-0.15234375,9.50390625
93,791000000,imu2_frame,-0.010643889944592857,-0.02672316619273436,-0.22396226378527634,0.9741732312046237,0.00208984375,0.0040234375,-0.08025390625,0.53515625,-0.15234375,9.50390625
93,811000000,imu2_frame,-0.010683034276646138,-0.026699089492697246,-0.2243218787849834,0.9740907175911699,0.00208984375,0.0040234375,-0.08025390625,0.57421875,-0.26953125,9.42578125
93,831000000,imu2_frame,-0.010828228227815697,-0.026768963276509915,-0.22448805177093423,0.974048913910712,-0.00572265625,-0.0076953125,-0.06072265625,0.57421875,-0.26953125,9.42578125
93,851000000,imu2_frame,-0.010745630234041455,-0.026711629949594487,-0.22461302503567737,0.9740225917506389,0.01380859375,0.0098828125,-0.05681640625,0.57421875,-0.26953125,9.42578125
93,871000000,imu2_frame,-0.010971485098590047,-0.02674113118300311,-0.22439970959896446,0.9740684312458161,-0.01353515625,-0.0057421875,-0.02166015625,0.57421875,-0.26953125,9.42578125
93,891000000,imu2_frame,-0.011109324929508826,-0.026767928912534093,-0.2241886951989101,0.9741147210808153,-0.01353515625,-0.0057421875,-0.02166015625,0.53515625,-0.11328125,9.46484375
93,911000000,imu2_frame,-0.01099932766151186,-0.02659717229487874,-0.2247335573910658,0.973995089001617,0.00404296875,0.0196484375,-0.09978515625,0.53515625,-0.11328125,9.46484375
93,931000000,imu2_frame,-0.01105289427555695,-0.026742591839359925,-0.2242523062764209,0.974101416916921,-0.0018164062499999999,-0.0155078125,0.00568359375,0.53515625,-0.11328125,9.46484375
93,951000000,imu2_frame,-0.011140280563554348,-0.026721174234370475,-0.22400424395356086,0.9741580835199672,-0.00962890625,0.0001171875,-0.01775390625,0.53515625,-0.11328125,9.46484375
93,971000000,imu2_frame,-0.011282435372636183,-0.026666283170460162,-0.22375473802749754,0.9742152909927976,-0.00962890625,0.0001171875,-0.01775390625,0.49609375,-0.23046875,9.4609375
93,991000000,imu2_frame,-0.011369782156799563,-0.026544710216602655,-0.22344984048934388,0.9742875731520496,-0.00572265625,0.0079296875,-0.01189453125,0.49609375,-0.23046875,9.4609375
94,11000000,imu2_frame,-0.011367072214855176,-0.026526592559556802,-0.22359680391777859,0.9742543809674125,0.00404296875,0.0001171875,-0.05876953125,0.49609375,-0.23046875,9.4609375
94,31000000,imu2_frame,-0.011453990833905074,-0.02630666253612294,-0.2231811698868655,0.9743546228186725,-0.00767578125,0.0176953125,-0.00017578125,0.49609375,-0.23046875,9.4609375
94,51000000,imu2_frame,-0.0114845072276276,-0.02612274831085341,-0.22277116790190657,0.9744530336891803,-0.00767578125,0.0176953125,-0.00017578125,0.53515625,-0.11328125,9.46484375
94,71000000,imu2_frame,-0.011478328751856158,-0.02604848430857633,-0.2224192433435397,0.9745354814601558,-0.0018164062499999999,0.0079296875,-0.00603515625,0.53515625,-0.11328125,9.46484375
94,91000000,imu2_frame,-0.01155779224584787,-0.026053002954035905,-0.22178705037031118,0.9746784919980106,-0.00767578125,-0.0018359375,0.02326171875,0.53515625,-0.11328125,9.46484375
94,111000000,imu2_frame,-0.011734394423194829,-0.02609673804231249,-0.2214992927886429,0.974740646297877,-0.01744140625,-0.0076953125,-0.01189453125,0.53515625,-0.11328125,9.46484375
94,131000000,imu2_frame,-0.01196939427384913,-0.026126645095494196,-0.2212088374241099,0.9748029453495947,-0.01744140625,-0.0076953125,-0.01189453125,0.53515625,-0.23046875,9.4609375
94,151000000,imu2_frame,-0.011871521431101111,-0.026133940373592037,-0.22119854967232763,0.9748062811463205,0.01380859375,0.0020703125,-0.04119140625,0.53515625,-0.23046875,9.4609375
94,171000000,imu2_frame,-0.01246309733650173,-0.02614068459194211,-0.22068544629320283,0.9749150063509205,-0.05259765625,-0.0135546875,0.01154296875,0.53515625,-0.23046875,9.4609375
94,191000000,imu2_frame,-0.012266440515516832,-0.026069614788691655,-0.22056030773494037,0.974947721815748,0.02162109375,0.0118359375,-0.02947265625,0.53515625,-0.23046875,9.4609375
94,211000000,imu2_frame,-0.012095400314744592,-0.026113126354496266,-0.22051290404894983,0.9749594171405901,0.02162109375,0.0001171875,-0.03728515625,0.53515625,-0.23046875,9.4609375
94,231000000,imu2_frame,-0.0120188168471673,-0.026135465727480402,-0.22052617820551781,0.9749567632458734,0.01185546875,0.0001171875,-0.04314453125,0.53515625,-0.23046875,9.4609375
94,251000000,imu2_frame,-0.01210279063747329,-0.02616096054383681,-0.2205227001062083,0.9749558273789006,-0.00376953125,-0.0037890625,-0.04119140625,0.53515625,-0.23046875,9.4609375
94,271000000,imu2_frame,-0.012192680486474608,-0.026087917375695383,-0.22087852511186679,0.9748761132851498,-0.00767578125,0.0059765625,-0.07830078125,0.53515625,-0.23046875,9.4609375
94,291000000,imu2_frame,-0.012096271126089513,-0.026114885913448196,-0.22088663914100734,0.9748747538056168,0.01380859375,0.0001171875,-0.04314453125,0.53515625,-0.23046875,9.4609375
94,311000000,imu2_frame,-0.012078526848553412,-0.026044543182705118,-0.22087970486441896,0.9748784267479613,0.00404296875,0.0079296875,-0.04119140625,0.53515625,-0.23046875,9.4609375
94,331000000,imu2_frame,-0.012051650892257631,-0.026116071855387026,-0.22092702243550447,0.9748661237623336,0.00794921875,-0.0057421875,-0.04705078125,0.53515625,-0.23046875,9.4609375
94,351000000,imu2_frame,-0.01228843300008029,-0.02592807626268438,-0.2208113530789673,0.9748943920380067,-0.02330078125,0.0137890625,-0.02947265625,0.53515625,-0.23046875,9.4609375
94,371000000,imu2_frame,-0.012527357425317048,-0.025762145456999234,-0.2206934847539268,0.9749224394609856,-0.02330078125,0.0137890625,-0.02947265625,0.57421875,-0.23046875,9.46484375
94,391000000,imu2_frame,-0.012728721033274827,-0.025652096251281082,-0.2215157493201279,0.9747362322299887,-0.02134765625,0.0098828125,-0.12712890625,0.57421875,-0.23046875,9.46484375
94,411000000,imu2_frame,-0.01247408116875873,-0.025625758887141827,-0.22222798823709675,0.9745780825693476,0.02552734375,0.0118359375,-0.11736328125,0.57421875,-0.23046875,9.46484375
94,431000000,imu2_frame,-0.012525375513674464,-0.025766496764021055,-0.2226718158003629,0.9744724034373269,0.00013671875,-0.0116015625,-0.09001953125,0.57421875,-0.23046875,9.46484375
94,451000000,imu2_frame,-0.012234755824224551,-0.02576849101722137,-0.22354442304489786,0.9742762372890662,0.02943359375,0.0098828125,-0.13494140625,0.57421875,-0.23046875,9.46484375
94,471000000,imu2_frame,-0.012846899981497982,-0.025602384589886177,-0.2241962200763652,0.9741229542350632,-0.06236328125,0.0059765625,-0.11150390625,0.57421875,-0.23046875,9.46484375
94,491000000,imu2_frame,-0.012632269356306838,-0.025766699316581973,-0.2249524087588328,0.9739470810936484,0.02552734375,-0.0076953125,-0.12517578125,0.57421875,-0.23046875,9.46484375
94,511000000,imu2_frame,-0.012902322625407319,-0.025814852305119325,-0.22525729523647592,0.9738717956764547,-0.02330078125,-0.0076953125,-0.07830078125,0.57421875,-0.23046875,9.46484375
94,531000000,imu2_frame,-0.013144924991637037,-0.025847546707623015,-0.22555601499640132,0.9737985414730836,-0.02330078125,-0.0076953125,-0.07830078125,0.53515625,-0.19140625,9.4609375
94,551000000,imu2_frame,-0.013206907327292324,-0.02576577126029353,-0.22628277489088924,0.9736312486860155,-0.00962890625,0.0079296875,-0.12322265625,0.53515625,-0.19140625,9.4609375
94,571000000,imu2_frame,-0.012826225677065472,-0.02594783960307648,-0.22723814941130865,0.9734089690397031,0.03919921875,-0.0076953125,-0.14861328125,0.53515625,-0.19140625,9.4609375
94,591000000,imu2_frame,-0.013023682370809551,-0.026049381513044624,-0.22761106570892378,0.9733165036036017,-0.01744140625,-0.0135546875,-0.08806640625,0.53515625,-0.19140625,9.4609375
94,611000000,imu2_frame,-0.013120764444773786,-0.025915950892819423,-0.22811318274129072,0.97320120473073,-0.01353515625,0.0118359375,-0.10173828125,0.53515625,-0.19140625,9.4609375
94,631000000,imu2_frame,-0.013087357713731556,-0.025971824427739633,-0.22843486035727362,0.9731247093654135,0.00404296875,-0.0037890625,-0.08416015625,0.53515625,-0.19140625,9.4609375
94,651000000,imu2_frame,-0.013287073615266955,-0.025912624585539546,-0.22870129875896852,0.9730609978350754,-0.02134765625,0.0020703125,-0.07830078125,0.53515625,-0.19140625,9.4609375
94,671000000,imu2_frame,-0.013314374134482368,-0.026152818368160843,-0.22903017909990786,0.9729768417564074,0.00208984375,-0.0233203125,-0.08611328125,0.53515625,-0.19140625,9.4609375
94,691000000,imu2_frame,-0.013276680947564993,-0.026123414633761787,-0.2287573345172641,0.973042331481753,0.00404296875,0.0040234375,-0.02361328125,0.53515625,-0.19140625,9.4609375
94,711000000,imu2_frame,-0.012975573593718879,-0.02615625834282373,-0.22850337428423304,0.9731051806357509,0.03138671875,0.0040234375,-0.02556640625,0.53515625,-0.19140625,9.4609375
94,731000000,imu2_frame,-0.013013111732072978,-0.025931436758760848,-0.22830173180973828,0.9731580235313017,-0.00767578125,0.0216015625,-0.02947265625,0.53515625,-0.19140625,9.4609375
94,751000000,imu2_frame,-0.012978327536932455,-0.026025278551435792,-0.22833979059801265,0.9731470535948408,0.00599609375,-0.0076953125,-0.05486328125,0.53515625,-0.19140625,9.4609375
94,771000000,imu2_frame,-0.01302182669758276,-0.02609968925799115,-0.2283743223039254,0.9731363764459313,0.00599609375,-0.0076953125,-0.05486328125,0.53515625,-0.34375,9.46484375
94,791000000,imu2_frame,-0.013181384028928439,-0.026066064869822287,-0.22831655654696525,0.9731486841093814,-0.00767578125,0.0001171875,-0.04509765625,0.53515625,-0.34375,9.46484375
94,811000000,imu2_frame,-0.013644023879234161,-0.02588160230835501,-0.22816806958145514,0.9731820566049332,-0.04087890625,0.0079296875,-0.03533203125,0.53515625,-0.34375,9.46484375
94,831000000,imu2_frame,-0.01376729211278023,-0.025977034596661983,-0.22810036540255668,0.9731936490979919,-0.0018164062499999999,-0.0116015625,-0.04509765625,0.53515625,-0.34375,9.46484375
94,851000000,imu2_frame,-0.01371289615283882,-0.02611303082124244,-0.22803919786222293,0.973205112162274,-0.0018164062499999999,-0.0116015625,-0.04509765625,0.53515625,0.0,9.46484375
94,871000000,imu2_frame,-0.013568822109851044,-0.026230734141697524,-0.22820501211829622,0.9731650980676543,0.00599609375,-0.0076953125,-0.06853515625,0.53515625,0.0,9.46484375
94,891000000,imu2_frame,-0.013377955563702786,-0.026334879671906165,-0.22790006207166297,0.9732363875879971,0.01185546875,-0.0057421875,-0.01970703125,0.53515625,0.0,9.46484375
94,911000000,imu2_frame,-0.01323970226906818,-0.02632737575524954,-0.22769761060588056,0.973285866379473,0.00404296875,0.0040234375,-0.02947265625,0.53515625,0.0,9.46484375
94,931000000,imu2_frame,-0.01309376593366888,-0.026280756825700222,-0.22749940392236956,0.9733354490253139,0.00404296875,0.0040234375,-0.02947265625,0.4609375,0.0,9.50390625
94,951000000,imu2_frame,-0.012929564830855467,-0.026239327839944895,-0.22734282860229585,0.9733753450292953,0.00599609375,0.0040234375,-0.03337890625,0.4609375,0.0,9.50390625
94,971000000,imu2_frame,-0.012708129482164127,-0.026212524602331026,-0.22728380907321602,0.9733927661186962,0.01185546875,0.0040234375,-0.04314453125,0.4609375,0.0,9.50390625
94,991000000,imu2_frame,-0.012347444282120375,-0.02623739256069018,-0.22705704307284338,0.9734496592234922,0.02748046875,0.0020703125,-0.02556640625,0.4609375,0.0,9.50390625
95,11000000,imu2_frame,-0.012062900643267293,-0.02630826329634165,-0.22683485184951274,0.9735031133472613,0.02748046875,0.0020703125,-0.02556640625,0.57421875,-0.11328125,9.42578125
95,31000000,imu2_frame,-0.012419341702855732,-0.026251022504583575,-0.2268524786155208,0.973496069183192,-0.03892578125,0.0001171875,-0.04900390625,0.57421875,-0.11328125,9.42578125
95,51000000,imu2_frame,-0.011999171202909687,-0.02621663657563471,-0.22700915529405297,0.9734657422168409,0.03724609375,0.0157421875,-0.06462890625,0.57421875,-0.11328125,9.42578125
95,71000000,imu2_frame,-0.011975729609842556,-0.026366181864253012,-0.22675543639795903,0.9735211237657786,0.00404296875,-0.0116015625,-0.02166015625,0.57421875,-0.11328125,9.42578125
95,91000000,imu2_frame,-0.01205104142395917,-0.02649135799118621,-0.2264997784993161,0.9735763096399489,0.00404296875,-0.0116015625,-0.02166015625,0.57421875,-0.3046875,9.421875
95,111000000,imu2_frame,-0.01217413928751473,-0.026326955368907223,-0.22636435638614055,0.97361073325611,-0.00767578125,0.0157421875,-0.03337890625,0.57421875,-0.3046875,9.421875
95,131000000,imu2_frame,-0.01234273553541026,-0.02631386029354357,-0.22648997846168964,0.9735797488097101,-0.00962890625,0.0001171875,-0.06072265625,0.57421875,-0.3046875,9.421875
95,151000000,imu2_frame,-0.01272384857331667,-0.02619148563122874,-0.22655913155296778,0.9735620522944993,-0.03306640625,0.0059765625,-0.05486328125,0.57421875,-0.3046875,9.421875
95,171000000,imu2_frame,-0.012992634136628307,-0.02605242483907117,-0.2266267297651616,0.9735465001601848,-0.03306640625,0.0059765625,-0.05486328125,0.49609375,-0.11328125,9.46484375
95,191000000,imu2_frame,-0.012943036350826586,-0.025929235893431928,-0.2267438506069217,0.9735231783311324,-0.0018164062499999999,0.0118359375,-0.06072265625,0.49609375,-0.11328125,9.46484375
95,211000000,imu2_frame,-0.013178857671737024,-0.02587743064377884,-0.22650328540019146,0.9735773918886286,-0.02720703125,-0.0018359375,-0.02361328125,0.49609375,-0.11328125,9.46484375
95,231000000,imu2_frame,-0.013068502067547472,-0.02580753256499688,-0.22633493699620041,0.9736198856902745,0.00599609375,0.0079296875,-0.03142578125,0.49609375,-0.11328125,9.46484375
95,251000000,imu2_frame,-0.012946439258510167,-0.025763646691399085,-0.22617069234422235,0.9736608455433656,0.00599609375,0.0079296875,-0.03142578125,0.53515625,-0.078125,9.421875
95,271000000,imu2_frame,-0.013037701842203675,-0.025769606930436294,-0.22593499631945407,0.9737141896508713,-0.01353515625,-0.0018359375,-0.02361328125,0.53515625,-0.078125,9.421875
95,291000000,imu2_frame,-0.013176657336585013,-0.02572960128227103,-0.22638004355694705,0.9736100036454249,-0.02134765625,0.0020703125,-0.09392578125,0.53515625,-0.078125,9.421875
95,311000000,imu2_frame,-0.013202496184374033,-0.025673575404033096,-0.2264413651769149,0.9735968723025409,-0.00962890625,0.0059765625,-0.05486328125,0.53515625,-0.078125,9.421875
95,331000000,imu2_frame,-0.013331334495497418,-0.02561515769380169,-0.2264973238032425,0.9735836386910268,-0.00962890625,0.0059765625,-0.05486328125,0.57421875,-0.26953125,9.42578125
95,351000000,imu2_frame,-0.013336790028789642,-0.02564631387797903,-0.22668017869028229,0.9735401857166155,0.00404296875,0.0001171875,-0.06853515625,0.57421875,-0.26953125,9.42578125
95,371000000,imu2_frame,-0.013593487752163149,-0.025674808103032066,-0.22639164595285055,0.9736030217508385,-0.01939453125,-0.0057421875,-0.01970703125,0.57421875,-0.26953125,9.42578125
95,391000000,imu2_frame,-0.01366318791644932,-0.02565035792976388,-0.22655417874535527,0.9735648825461262,-0.00376953125,0.0040234375,-0.06658203125,0.57421875,-0.26953125,9.42578125
95,411000000,imu2_frame,-0.013749353678947755,-0.025620938796653395,-0.22671335948843357,0.9735273881088594,-0.00376953125,0.0040234375,-0.06658203125,0.57421875,-0.3046875,9.46484375
95,431000000,imu2_frame,-0.013755244674721032,-0.02564825780263757,-0.226641874284699,0.9735432301322561,0.00599609375,0.0001171875,-0.04314453125,0.57421875,-0.3046875,9.46484375
95,451000000,imu2_frame,-0.013732272606657546,-0.02557921294292863,-0.226120412141492,0.9736666204442045,0.00794921875,0.0098828125,0.00373046875,0.57421875,-0.3046875,9.46484375
95,471000000,imu2_frame,-0.013788280179615415,-0.02561284998198579,-0.2257535544312922,0.9737500695286888,0.00208984375,-0.0018359375,-0.01189453125,0.57421875,-0.3046875,9.46484375
95,491000000,imu2_frame,-0.013839158781018017,-0.02562629888303739,-0.22538935556346645,0.9738333578638988,0.00208984375,-0.0018359375,-0.01189453125,0.53515625,-0.3046875,9.4609375
95,511000000,imu2_frame,-0.014250136111443648,-0.025555531860095994,-0.22491882001170466,0.9739380744260363,-0.03501953125,-0.0018359375,-0.00017578125,0.53515625,-0.3046875,9.4609375
95,531000000,imu2_frame,-0.014395200295402427,-0.025566871640684545,-0.22453749051870492,0.9740236283758862,-0.00767578125,-0.0037890625,-0.00994140625,0.53515625,-0.3046875,9.4609375
95,551000000,imu2_frame,-0.01441819652852672,-0.025623545126888633,-0.22389177358333018,0.974170428244312,0.00599609375,-0.0057421875,0.01740234375,0.53515625,-0.3046875,9.4609375
95,571000000,imu2_frame,-0.014217421103516701,-0.02569075614009156,-0.223261524546117,0.9743162431384687,0.00599609375,-0.0057421875,0.01740234375,0.4609375,0.11328125,9.46484375
95,591000000,imu2_frame,-0.014135973202731208,-0.025750092304301385,-0.22264109348233882,0.9744578238697251,-0.00572265625,-0.0076953125,0.01740234375,0.4609375,0.11328125,9.46484375
95,611000000,imu2_frame,-0.013957154657809667,-0.025596152143281183,-0.22237119025497745,0.974526084091083,-0.0018164062499999999,0.0157421875,-0.01775390625,0.4609375,0.11328125,9.46484375
95,631000000,imu2_frame,-0.013685058209942142,-0.025701831045838557,-0.22194978617773609,0.9746232233424047,0.01380859375,-0.0076953125,-0.00212890625,0.4609375,0.11328125,9.46484375
95,651000000,imu2_frame,-0.013712842121420824,-0.025841917861851964,-0.22152357310473414,0.9747160918960381,0.01380859375,-0.0076953125,-0.00212890625,0.65234375,-0.421875,9.4609375
95,671000000,imu2_frame,-0.013473159437590036,-0.025863554559616985,-0.22119568412786067,0.9747933216038766,0.03724609375,0.0098828125,-0.01189453125,0.65234375,-0.421875,9.4609375
95,691000000,imu2_frame,-0.013817564011633471,-0.02595340925546085,-0.22116016893308899,0.9747941706587554,-0.01939453125,-0.0096484375,-0.04119140625,0.65234375,-0.421875,9.4609375
95,711000000,imu2_frame,-0.013822678853245333,-0.025917970775158148,-0.22079905601347424,0.9748768995128445,0.01185546875,0.0098828125,-0.00798828125,0.65234375,-0.421875,9.4609375
95,731000000,imu2_frame,-0.013593253492410532,-0.025852847807209273,-0.220451459055262,0.9749605160826538,0.01185546875,0.0098828125,-0.00798828125,0.49609375,0.0,9.421875
95,751000000,imu2_frame,-0.013587843473028046,-0.025839347595109124,-0.2203755010929144,0.9749781213666584,-0.00962890625,0.0001171875,-0.03533203125,0.49609375,0.0,9.421875
95,771000000,imu2_frame,-0.013515464042694322,-0.025802068799273267,-0.22037592142949386,0.9749800196575774,-0.00376953125,0.0040234375,-0.04314453125,0.49609375,0.0,9.421875
95,791000000,imu2_frame,-0.013501558218703783,-0.025830434471350368,-0.22026328381037005,0.9750049140315964,-0.00767578125,-0.0037890625,-0.03142578125,0.49609375,0.0,9.421875
95,811000000,imu2_frame,-0.013570341461484229,-0.025859699583576586,-0.22014829013532997,0.9750291544977291,-0.00767578125,-0.0037890625,-0.03142578125,0.53515625,-0.15234375,9.46484375
95,831000000,imu2_frame,-0.013540374983908808,-0.02575455668721364,-0.22031858222087175,0.9749938888953742,-0.0018164062499999999,0.0118359375,-0.06072265625,0.53515625,-0.15234375,9.46484375
95,851000000,imu2_frame,-0.013465493749413547,-0.025678369254380686,-0.22022274714655796,0.9750185862175876,0.00404296875,0.0098828125,-0.03337890625,0.53515625,-0.15234375,9.46484375
95,871000000,imu2_frame,-0.013556781110574189,-0.025824074952317817,-0.22023887388976773,0.9750098303435429,-0.00767578125,-0.0155078125,-0.04509765625,0.53515625,-0.15234375,9.46484375
95,891000000,imu2_frame,-0.013658540883655678,-0.02592584937682471,-0.22025241377405558,0.9750026506742031,-0.00767578125,-0.0155078125,-0.04509765625,0.4609375,-0.19140625,9.4609375
95,911000000,imu2_frame,-0.013397582077785509,-0.02584641338270979,-0.21973679355046502,0.9751247147262136,0.02552734375,0.0098828125,0.00958984375,0.4609375,-0.19140625,9.4609375
95,931000000,imu2_frame,-0.013987665071558453,-0.025739687960952592,-0.21980299376500018,0.9751043316596754,-0.06041015625,-0.0057421875,-0.04900390625,0.4609375,-0.19140625,9.4609375
95,951000000,imu2_frame,-0.013815046580975102,-0.025606040047308046,-0.21977976947879868,0.9751155460400103,0.01380859375,0.0137890625,-0.04119140625,0.4609375,-0.19140625,9.4609375
95,971000000,imu2_frame,-0.013724692754385431,-0.025472097247408315,-0.2197561878688585,0.9751256447063441,0.01380859375,0.0137890625,-0.04119140625,0.49609375,-0.34375,9.54296875
95,991000000,imu2_frame,-0.01366798016250153,-0.025318331208688167,-0.22049022009027922,0.9749647333455835,0.00794921875,0.0157421875,-0.11931640625,0.49609375,-0.34375,9.54296875
96,11000000,imu2_frame,-0.013166298836016518,-0.025421885135128414,-0.22081371789507273,0.9748957268962114,0.05873046875,0.0001171875,-0.07830078125,0.49609375,-0.34375,9.54296875
96,31000000,imu2_frame,-0.013717030172488057,-0.0252474638060833,-0.22113510079429594,0.9748198171207355,-0.05064453125,0.0040234375,-0.07634765625,0.49609375,-0.34375,9.54296875
96,51000000,imu2_frame,-0.013906239935680484,-0.025140701616876822,-0.22146097291509856,0.9747459151433058,-0.05064453125,0.0040234375,-0.07634765625,0.4609375,0.34375,9.421875
96,71000000,imu2_frame,-0.013006440373571166,-0.025315781714434736,-0.22114562599368753,0.9748253976014659,0.06458984375,0.0001171875,-0.01189453125,0.4609375,0.34375,9.421875
96,91000000,imu2_frame,-0.013282148021111195,-0.025125012392528775,-0.22084257905453888,0.9748953141608387,-0.05845703125,0.0098828125,-0.00994140625,0.4609375,0.34375,9.421875
