timestamp_sec,timestamp_nsec,frame_id,orientation_x,orientation_y,orientation_z,orientation_w,angular_velocity_x,angular_velocity_y,angular_velocity_z,linear_acceleration_x,linear_acceleration_y,linear_acceleration_z
380,61000000,imu2_frame,-0.006148324351555122,0.0011665041531682143,0.75599722501396,0.654544905370839,-7.570108330429294e-06,0.00022331750924605077,0.0009102835630817404,-0.08984375,-0.0546875,9.80859375
380,86000000,imu2_frame,-0.0061418265243345874,0.0011655295581816918,0.7560046193555581,0.6545364275736315,-7.494407247125001e-06,0.00022108433415359027,0.000901180727450923,-0.08984375,-0.0546875,9.80859375
380,111000000,imu2_frame,-0.006135584017444067,0.001164581717671331,0.7560119386656704,0.6545280337412314,-7.419463174653751e-06,0.00021887349081205437,0.0008921689201764137,-0.08984375,-0.0546875,9.76953125
380,136000000,imu2_frame,-0.006129355460071127,0.001163770496523508,0.7560350041873736,0.6545014507877531,-7.345268542907214e-06,0.00021668475590393382,0.0028168409809746497,-0.08984375,-0.0546875,9.76953125
380,161000000,imu2_frame,-0.006091846999599123,0.0011991274199950697,0.7560577783210422,0.6544754291291721,0.003859915684142522,0.00021451790834489448,0.002788672571164903,-0.08984375,-0.0546875,9.76953125
380,188000000,imu2_frame,-0.006052686729974296,0.0012367624273559765,0.7560821201820255,0.6544476013731736,0.003821316527301097,0.00021237272926144553,0.0027607858454532543,-0.08984375,-0.0546875,9.76953125
380,211000000,imu2_frame,-0.0060188257890206095,0.0012676435414777836,0.7561026483150104,0.6544241377172767,0.003783103362028086,0.00021024900196883108,0.0027331779869987213,-0.08984375,-0.0546875,9.76953125
380,236000000,imu2_frame,-0.0059989832697534195,0.0012825901816468151,0.7561089468675781,0.654417013554016,0.0018116785784078049,0.00020814651194914276,0.0007722524571287344,-0.08984375,-0.0546875,9.76953125
380,261000000,imu2_frame,-0.005963807611978425,0.001315292203078187,0.7561151479937291,0.6544101053464938,0.0037271555426237266,0.00020606504682965134,0.000764529932557447,-0.08984375,-0.0546875,9.76953125
380,286000000,imu2_frame,-0.005915678886089203,0.0013355254312439459,0.7561213223056816,0.6544033672513053,0.0036898839871974897,0.00020400439636135482,0.0007568846332318725,-0.0546875,-0.0546875,9.765625
380,311000000,imu2_frame,-0.00589966085301648,0.0013188675578538263,0.7561116821537988,0.6544146840503635,-0.00021420235267448538,0.00020196435239774128,-0.0011842779631004463,-0.0546875,-0.0546875,9.765625
380,336000000,imu2_frame,-0.005910198067114472,0.0012990647655208188,0.7561019877456032,0.6544258293471388,-0.00021206032914774053,0.00019994470887376388,-0.0011724351834694418,-0.08984375,-0.09375,9.8046875
380,361000000,imu2_frame,-0.0058867797490962295,0.0012821779501706342,0.756124134194904,0.6544004855834815,0.001723654024143737,-0.0017356484882149737,0.0027064766683652527,-0.08984375,-0.09375,9.8046875
380,386000000,imu2_frame,-0.005837309629041682,0.0012687653765672384,0.7561462063319354,0.6543754508694042,0.0017064174839022995,-0.001718292003332824,0.0026794119016816,-0.0546875,-0.0546875,9.8046875
380,411000000,imu2_frame,-0.0058021684214786835,0.0012671899051175542,0.7561680168130108,0.6543505630932331,0.0016893533090632765,-0.001701109083299496,0.002652617782664784,-0.08984375,-0.0546875,9.80859375
380,436000000,imu2_frame,-0.005767675424336688,0.0012656060452206734,0.756189606006793,0.6543259217919072,0.0016724597759726438,-0.0016840979924665008,0.0026260916048381363,-0.08984375,-0.0546875,9.80859375
380,461000000,imu2_frame,-0.005770009731146539,0.001295327862362226,0.7562106985055914,0.6543014661294265,0.0016557351782129173,0.0021999304874581642,0.002599830688789755,-0.08984375,-0.0546875,9.80859375
380,486000000,imu2_frame,-0.0057722497069909035,0.001324415690958406,0.7562315782521788,0.6542772555351567,0.001639177826430788,0.0021779311825835825,0.002573832381901857,-0.08984375,-0.0546875,9.80859375
380,511000000,imu2_frame,-0.0057743970132589275,0.0013528792394610356,0.7562522474279766,0.6542532875859557,0.0016227860481664803,0.0021561518707577465,0.0025480940580828388,-0.08984375,-0.0546875,9.80859375
380,536000000,imu2_frame,-0.005787291415367053,0.00129485669269783,0.756241460809978,0.6542657591194952,-0.004194223062315185,-0.0017325971479498308,-0.0013445743824979897,-0.08984375,-0.0546875,9.80859375
380,561000000,imu2_frame,-0.005768506616063657,0.001274414512704169,0.7562623439627673,0.6542418263173116,-0.0002850933316920327,-0.0017152711764703325,0.0025360588613269905,-0.08984375,-0.0546875,9.80859375
380,586000000,imu2_frame,-0.005750047903728435,0.001254338675049025,0.7562830166670744,0.6542181305073583,-0.0002822423983751124,-0.0016981184647056292,0.0025106982727137205,-0.08984375,-0.0546875,9.80859375
380,611000000,imu2_frame,-0.005718373776760762,0.0012228993101385114,0.7563035175460564,0.6541947676847383,-0.00027941997439136126,-0.0016811372800585728,0.002485591289986583,-0.0546875,-0.0546875,9.8046875
380,636000000,imu2_frame,-0.0056896244716748085,0.0012255479062007826,0.756307831564531,0.6541900260015113,0.0016569679753525523,0.00026926784274201285,0.0005271416270867174,-0.0546875,-0.0546875,9.8046875
380,661000000,imu2_frame,-0.005710676064511252,0.0012074517906530322,0.7563120255023702,0.6541850275874262,-0.002226789204400973,0.0022001689143145925,0.0005218702108158501,-0.0546875,-0.0546875,9.8046875
380,686000000,imu2_frame,-0.005744879575077153,0.00120132600827499,0.7563161412285284,0.6541799811150432,-0.0022045213123569633,0.002178167225171447,0.0005166515087076917,-0.08984375,-0.0546875,9.76953125
380,711000000,imu2_frame,-0.0057289548379371134,0.0012158319947510256,0.7563202948009901,0.654175291876091,0.0016847114007666063,0.00022279180291973234,0.0005114849936206147,-0.08984375,-0.0546875,9.76953125
380,736000000,imu2_frame,-0.0057133050292204526,0.0012300164913297289,0.7563244055207468,0.6541706496158042,0.0016678642867589402,0.00022056388489053501,0.0005063701436844086,-0.08984375,-0.0546875,9.76953125
380,761000000,imu2_frame,-0.005695481888268728,0.0012101338188182332,0.7563286422988836,0.6541659437027644,-0.0002824081061086492,-0.0017152355039583703,0.0005013064422475645,-0.08984375,-0.0546875,9.76953125
380,786000000,imu2_frame,-0.005677974803512974,0.0011906145423246138,0.7563328358862218,0.6541612831706322,-0.0002795840250475627,-0.0016980831489187866,0.0004962933778250889,-0.08984375,-0.0546875,9.76953125
380,811000000,imu2_frame,-0.0056607792348655995,0.0011714533835882172,0.7563369867411304,0.6541566675978862,-0.00027678818479708706,-0.0016811023174295987,0.000491330444046838,-0.08984375,-0.0546875,9.76953125
380,836000000,imu2_frame,-0.005750095902482729,0.0011714399007412073,0.755429592933347,0.6552035517655783,-0.004183038184797087,0.0061313976825704015,-0.11083679455595316,-0.08984375,-0.0546875,9.76953125
380,861000000,imu2_frame,-0.005439561138807302,0.0012882546398942213,0.7528207042463361,0.6582018982292975,0.025113836815202913,-0.011446727317429599,-0.3178680445559532,-0.08984375,-0.0546875,9.76953125
380,886000000,imu2_frame,-0.004953101804624837,0.0011931694882580924,0.7502001590808898,0.6611911708757862,0.025113836815202913,-0.011446727317429599,-0.3178680445559532,0.4453125,-0.1328125,9.76953125
380,911000000,imu2_frame,-0.004606095123929297,0.0012723440152713173,0.7475674737381524,0.6641686813130933,0.025113836815202913,-0.011446727317429599,-0.3178680445559532,0.0234375,-0.0546875,9.76953125
380,936000000,imu2_frame,-0.004574409421549152,0.00123054482652579,0.7475878238570982,0.6641460729075213,-0.00027678818479708706,0.00027202268257040126,0.0024444554440468383,0.0234375,-0.0546875,9.76953125
380,961000000,imu2_frame,-0.0045450201655981405,0.001222835157258797,0.7475917761521679,0.6641418400428627,0.0016595734470508838,0.002202896205744697,0.00048641713960636965,0.0234375,-0.0546875,9.76953125
380,986000000,imu2_frame,-0.004545606255957054,0.0012414305876448832,0.7475956193524023,0.6641374754062295,0.001642977712580375,0.0021808672436872505,0.00048155296821030593,-0.0546875,-0.0546875,9.8046875
381,11000000,imu2_frame,-0.0045595007687259945,0.001271410786697594,0.7475993914242272,0.664133077334262,0.0016265479354545713,0.002159058571250378,0.00047673743852820287,-0.08984375,-0.0546875,9.80859375
381,36000000,imu2_frame,-0.004573160218280632,0.001300870559360348,0.7476191759234048,0.6641106547353498,0.0016102824561000256,0.002137467985537874,0.002405563814142921,-0.08984375,-0.0546875,9.80859375
381,61000000,imu2_frame,-0.004566761915872028,0.001279929032790685,0.7476229623983834,0.6641064768257724,-0.0003394141184609747,-0.0017510941943175047,0.0004479144260014916,-0.08984375,-0.0546875,9.80859375
381,86000000,imu2_frame,-0.004560561852449728,0.001259371720052319,0.7476267106488991,0.6641023390884632,-0.000336019977276365,-0.0017335832523743297,0.0004434352817414767,-0.08984375,-0.0546875,9.80859375
381,111000000,imu2_frame,-0.004538665910997609,0.0012570824206841861,0.7476303895069588,0.6640983518585248,0.0016009339724963986,-0.0017162474198505863,0.00043900092892406196,-0.08984375,-0.0546875,9.80859375
381,136000000,imu2_frame,-0.004530527719118662,0.001239920381587452,0.7476339434875289,0.6640944386616412,0.0015849246327714348,-0.0016990849456520805,0.00043461091963482135,-0.08984375,-0.09375,9.8046875
381,161000000,imu2_frame,-0.004574457989698354,0.0012367073130250688,0.7476212213183582,0.6641084657821861,-0.0003645183635562797,0.0021850934038044403,-0.0015033289395615268,-0.08984375,-0.09375,9.8046875
381,186000000,imu2_frame,-0.0046177163657828875,0.001233382227883511,0.7476086244281467,0.6641223532938035,-0.0003608731799207169,0.002163242469766396,-0.0014882956501659115,-0.08984375,-0.09375,9.8046875
381,211000000,imu2_frame,-0.004660311896256741,0.00122994769964013,0.7475961516261043,0.6641361026141589,-0.0003572644481215097,0.002141610045068732,-0.0014734126936642525,-0.08984375,-0.09375,9.8046875
381,236000000,imu2_frame,-0.00466647622001103,0.0011946230451535022,0.7475840271738247,0.6641497716554862,-0.0003536918036402946,-0.0017469935553819553,-0.0014586785667276099,-0.08984375,-0.09375,9.8046875
381,261000000,imu2_frame,-0.0047243796460940245,0.00117372510402841,0.7475718268625776,0.6641631322858023,-0.0022837486356038915,0.002137663880171864,-0.0014440917810603338,-0.08984375,-0.09375,9.8046875
381,286000000,imu2_frame,-0.0047678967341320275,0.0011411731035509648,0.7475597773982059,0.6641764404892915,-0.002260911149247853,0.0021162872413701453,-0.0014296508632497306,-0.0546875,-0.09375,9.80859375
381,311000000,imu2_frame,-0.004810767632198007,0.001135770429502976,0.7475479086204513,0.6641894992075004,-0.002238302037755374,0.0020951243689564442,-0.0014153543546172333,-0.08984375,-0.0546875,9.80859375
381,336000000,imu2_frame,-0.004817056640124857,0.0010986725552649026,0.7475363906211001,0.6642024793548429,-0.0022159190173778203,-0.0017930143747331203,-0.001401200811071061,-0.08984375,-0.0546875,9.80859375
381,361000000,imu2_frame,-0.004825234077748896,0.0010961940852917068,0.7475408981499103,0.6641973509943019,-0.00026016607720404225,0.00015850951901421082,0.0005464049470396497,-0.08984375,-0.0546875,9.80859375
381,386000000,imu2_frame,-0.004846544072703407,0.0010788644546798236,0.7475452674594709,0.6641923066108099,-0.00025756441643200184,0.0001569244238240687,0.0005409408975692533,-0.08984375,-0.09375,9.8046875
381,411000000,imu2_frame,-0.004867605423116897,0.0010617183996882741,0.7475495926150124,0.6641873122490475,-0.0002549887722676818,0.000155355179585828,0.0005355314885935607,-0.08984375,-0.09375,9.8046875
381,436000000,imu2_frame,-0.004890441214472692,0.0010784194826791423,0.7475376761227893,0.6642005294887133,0.001681154865454995,0.0020873953777899696,-0.001403417576292375,-0.08984375,-0.09375,9.8046875
381,461000000,imu2_frame,-0.004912967411698678,0.0010947436037851907,0.7475419303278618,0.6641955485317167,0.001664343316800445,0.0020665214240120702,0.0005442103494705488,-0.08984375,-0.09375,9.8046875
381,486000000,imu2_frame,-0.004966996517588872,0.0011653310370307926,0.7475461308472153,0.6641902989388857,0.0016476998836324405,0.0020458562097719494,0.0005387682459758433,-0.20703125,-0.0546875,9.76953125
381,511000000,imu2_frame,-0.0050909718595669425,0.0013071902301612327,0.7486190776476136,0.6629795244509921,0.0016476998836324405,0.009858356209771948,0.12944501824597585,-0.20703125,-0.0546875,9.76953125
381,536000000,imu2_frame,-0.005094320449605219,0.0013151063876436595,0.7496795922296025,0.6617800445682863,0.0016312228847961162,0.00975977264767423,0.12815056806351607,0.13671875,-0.09375,9.76953125
381,561000000,imu2_frame,-0.0050433630617294,0.0012327234762662832,0.7496894837852983,0.6617693879166607,-0.00032190211520388375,0.00194727264767423,0.001197443063516085,0.13671875,-0.09375,9.76953125
381,586000000,imu2_frame,-0.005066187726975361,0.001242708918060901,0.7496991559214289,0.6617582375967505,-0.0003186830940518449,0.0019277999211974874,0.0011854686328809242,-0.08984375,-0.0546875,9.80859375
381,611000000,imu2_frame,-0.005088790579556785,0.0012525023266124545,0.749708730344526,0.6617471987802881,-0.00031549626311132647,0.0019085219219855127,0.001173613946552115,-0.08984375,-0.0546875,9.76953125
381,636000000,imu2_frame,-0.005123955197168269,0.0012471020548964627,0.7497181116887296,0.6617363091333948,-0.0003123413004802132,0.0018894367027656575,0.0011618778070865937,-0.08984375,-0.09375,9.8046875
381,661000000,imu2_frame,-0.00517443178974754,0.0012235681250438166,0.7497114345827246,0.6617435250855197,-0.002242811637475411,0.001870542335738001,-0.0007833347209842724,-0.08984375,-0.09375,9.8046875
381,686000000,imu2_frame,-0.005210844514425407,0.001215254820694002,0.7497049232160575,0.6617506315529836,-0.002220383521100657,0.0018518369123806209,-0.0007755013737744296,-0.08984375,-0.0546875,9.80859375
381,711000000,imu2_frame,-0.006089527630044568,0.0004189309411114541,0.7496919011486702,0.66175886507262,-0.002220383521100657,0.0018518369123806209,-0.0007755013737744296,-0.3203125,-2.4296875,10.109375
381,736000000,imu2_frame,-0.007722921132327758,-0.001568968695930405,0.7423138811005162,0.6700059676987241,-0.11159538352110066,-0.013773163087619378,-0.8855411263737745,-0.3203125,-2.4296875,10.109375
381,761000000,imu2_frame,-0.00874464331998306,-0.0021179823227808437,0.7349895237334171,0.6780187647596573,0.005592116478899343,0.02724246191238062,-0.8679630013737745,-0.3203125,-2.4296875,10.109375
381,786000000,imu2_frame,-0.008370464859216269,-0.0013498895526700325,0.7275946354619501,0.685954925314505,0.005592116478899343,0.02724246191238062,-0.8679630013737745,-0.08984375,1.3984375,9.5390625
381,811000000,imu2_frame,-0.00831868998175739,-0.0010614206004178814,0.7201090458239662,0.6938102297500328,0.005592116478899343,0.02724246191238062,-0.8679630013737745,0.1015625,0.328125,9.9609375
381,836000000,imu2_frame,-0.007527931743162442,-0.0002824028349239227,0.7153952314025951,0.6986794067229524,0.07395149147889934,0.009664336912380622,-0.5417911263737745,0.1015625,0.328125,9.9609375
381,861000000,imu2_frame,-0.007268927074743025,-0.00016408527971209925,0.715577702524749,0.6984953023640209,0.003638991478899343,-0.00010128808761937905,0.02070887362622557,0.1015625,0.328125,9.9609375
381,886000000,imu2_frame,-0.007113664681098416,0.00043773758985055615,0.71576013116335,0.6983098444083625,0.0036026015641103496,-0.00010027520674318526,0.020501784889963313,-0.703125,0.86328125,9.7265625
381,911000000,imu2_frame,-0.006537379515129857,0.0014057283591728852,0.720087927162224,0.693850606220148,0.04657135156411035,-0.0059596502067431854,0.4970642848899633,-0.703125,0.86328125,9.7265625
381,936000000,imu2_frame,-0.006144355179307868,0.0017501068337541716,0.724383992288322,0.6893671124603591,0.04657135156411035,-0.0059596502067431854,0.4970642848899633,-0.12890625,-0.24609375,9.8046875
381,961000000,imu2_frame,-0.0066113944251380025,0.0012871366318251843,0.7271469648009431,0.6864487776402711,-0.04717864843588965,-0.00010027520674318526,0.3212830348899633,-0.12890625,-0.24609375,9.8046875
381,986000000,imu2_frame,-0.0071809522113436795,0.0007139235226492427,0.7298968194526828,0.6835192441997519,-0.04717864843588965,-0.00010027520674318526,0.3212830348899633,-0.12890625,-0.5546875,9.80859375
382,11000000,imu2_frame,-0.007528278837588832,0.0002650120085385199,0.7326363217029703,0.6805786324209133,-0.04717864843588965,-0.00010027520674318526,0.3212830348899633,0.0234375,-0.09375,9.765625
382,36000000,imu2_frame,-0.007914954708503098,-0.00016730497870859142,0.7353635688808551,0.6776265542788436,-0.04717864843588965,-0.00010027520674318526,0.3212830348899633,-0.0546875,-0.1328125,9.76953125
382,61000000,imu2_frame,-0.007658575077042857,7.65007680266956e-05,0.7362478883904418,0.6766685948202691,0.02899322656411035,-0.00010027520674318526,0.10448615988996332,-0.0546875,-0.1328125,9.76953125
382,86000000,imu2_frame,-0.0073800279755853624,0.00034451312686664676,0.7371223231911006,0.6757189483440136,0.028703294298469247,-9.927245467575341e-05,0.10344129829106369,-0.0546875,-0.0546875,9.8046875
382,111000000,imu2_frame,-0.0070811277921889616,0.0006349669483779,0.7379869500082284,0.6747775307934593,0.028416261355484553,-9.827973012899588e-05,0.10240688530815305,-0.0546875,0.01953125,9.80859375
382,136000000,imu2_frame,-0.007726746204756811,-0.0004124771839220218,0.7445016479577423,0.667575781049512,-0.10634936364451544,-0.019629529730128995,0.776235010308153,-0.0546875,0.01953125,9.80859375
382,161000000,imu2_frame,-0.006873201726853219,-0.0015011895631265773,0.7528209985508629,0.6581877009400886,-0.030177488644515447,-0.11337952973012899,1.002797510308153,-0.0546875,0.01953125,9.80859375
382,189000000,imu2_frame,-0.005993015527710263,-0.002816623400108574,0.7619952207530567,0.6475487888545596,-0.030177488644515447,-0.11337952973012899,1.002797510308153,-0.015625,-0.2109375,9.76953125
382,211000000,imu2_frame,-0.005250568729896705,-0.0037472525844038235,0.769097754250188,0.6390986105706997,-0.030177488644515447,-0.11337952973012899,1.002797510308153,-0.0546875,0.01953125,9.80859375
382,236000000,imu2_frame,-0.002799592209841598,-0.00454559772064818,0.7677904698664996,0.6406787761483913,0.07138501135548456,-0.193457654730129,-0.16517123969184697,-0.0546875,0.01953125,9.80859375
382,261000000,imu2_frame,0.0007703341254094022,-0.006733651705276082,0.7683054336688944,0.6400475178569944,0.04404126135548456,-0.337988904730129,0.06334438530815305,-0.0546875,0.01953125,9.80859375
382,286000000,imu2_frame,0.004188410072116525,-0.00897985929015648,0.7688071895825543,0.6394038822171565,0.04404126135548456,-0.337988904730129,0.06334438530815305,-0.12890625,-0.24609375,9.765625
382,311000000,imu2_frame,0.005265992710889174,-0.008590547076045393,0.7674148889855795,0.6410716496499855,0.08505688635548456,-0.058692029730129,-0.17493686469184697,-0.12890625,-0.24609375,9.765625
382,336000000,imu2_frame,0.006640387153254103,-0.00822177857926695,0.7660286193391255,0.6427195826866035,0.08420631749192971,-0.058105109432827706,-0.17318749604492847,0.3671875,0.13671875,9.76953125
382,361000000,imu2_frame,0.009365111451378074,-0.007534988018172916,0.7669781989139337,0.6415605669255301,0.1779563174919297,-0.1264644844328277,0.11782812895507151,0.3671875,0.13671875,9.76953125
382,386000000,imu2_frame,0.011910334685777995,-0.006707322903583276,0.7679123801089665,0.6404090350881396,0.1761767543170104,-0.12519983958849942,0.11664984766552079,-0.015625,0.2109375,9.80859375
382,411000000,imu2_frame,0.014575935658425068,-0.006213391624318339,0.7688288898166342,0.6392582217285331,0.17441498677384032,-0.12394784119261443,0.11548334918886559,0.63671875,-0.0546875,9.69140625
382,436000000,imu2_frame,0.017275397528168163,-0.005624933804181065,0.769727980319967,0.6381134358971662,0.1726708369061019,-0.1227083627806883,0.11432851569697694,0.63671875,0.2109375,9.7265625
382,461000000,imu2_frame,0.017648002186803124,-0.006282672218304276,0.7718067841095606,0.635581123107877,-0.020688538093898097,-0.04263023778068829,0.26276601569697694,0.63671875,0.2109375,9.7265625
382,486000000,imu2_frame,0.01750873028330218,-0.0071203119325317105,0.7738870806479863,0.6330414930539604,-0.020688538093898097,-0.04263023778068829,0.26276601569697694,0.1015625,-0.70703125,9.84375
382,511000000,imu2_frame,0.017633809604293473,-0.007967640974402784,0.7759540081717052,0.6304926190356299,-0.020688538093898097,-0.04263023778068829,0.26276601569697694,0.51953125,-0.40234375,9.69140625
382,536000000,imu2_frame,0.02028788916933704,-0.010286166460075177,0.7716958833687996,0.6355848172543587,0.0007958369061019039,-0.2809114877806883,-0.5302027343030231,0.51953125,-0.40234375,9.69140625
382,561000000,imu2_frame,0.023586369420389476,-0.011440206347476724,0.7687113778670032,0.639058387312228,0.11017083690610191,-0.2633333627806883,-0.36809335930302306,0.51953125,-0.40234375,9.69140625
382,586000000,imu2_frame,0.026452405819181016,-0.01250626020683606,0.7663850398851689,0.6417147608729477,0.09649896190610191,-0.23403648778068828,-0.28410898430302306,0.51953125,-0.40234375,9.69140625
382,611000000,imu2_frame,0.02946427594168294,-0.013142023127590337,0.7640346559859,0.644368053307932,0.09649896190610191,-0.23403648778068828,-0.28410898430302306,0.25390625,0.44140625,9.69140625
382,636000000,imu2_frame,0.028686293580243393,-0.013579303934613306,0.7597804776749488,0.6494045925378925,-0.09490728809389809,0.00619788721931171,-0.5243433593030231,0.25390625,0.44140625,9.69140625
382,661000000,imu2_frame,0.028018762758678428,-0.013329753221390971,0.7553356301535868,0.6546032022783066,-0.0480322880938981,0.03549476221931171,-0.5458277343030231,0.25390625,0.44140625,9.69140625
382,686000000,imu2_frame,0.027266913246012662,-0.013453198807849369,0.7508606767863736,0.6597603890351255,-0.0480322880938981,0.03549476221931171,-0.5458277343030231,0.59765625,-0.2109375,9.6875
382,711000000,imu2_frame,0.027293424675073688,-0.013983259343895604,0.7466221133826887,0.6645411629354461,-0.030454163093898097,-0.03286461278068829,-0.5106714843030231,0.59765625,-0.2109375,9.6875
382,736000000,imu2_frame,0.027431086761748134,-0.014293272944450276,0.7423478906952428,0.6693002667024187,-0.030454163093898097,-0.03286461278068829,-0.5106714843030231,0.484375,0.25,9.765625
382,761000000,imu2_frame,0.026168174060784494,-0.0138066140293129,0.7360186164763426,0.6763144241221095,-0.06561041309389809,0.0921353872193117,-0.7548121093030231,0.484375,0.25,9.765625
382,786000000,imu2_frame,0.025724829841234535,-0.013482868315684064,0.7320097852809077,0.6806747532005436,-0.022641663093898097,0.03744788721931171,-0.47356210930302306,0.484375,0.25,9.765625
382,811000000,imu2_frame,0.025268938021765466,-0.013093310106385685,0.7279749027019777,0.6850128371335505,-0.022641663093898097,0.03744788721931171,-0.47356210930302306,0.3671875,0.328125,9.73046875
382,836000000,imu2_frame,0.024656050709635516,-0.012962534677207444,0.723920479071481,0.6893208192409856,-0.022641663093898097,0.03744788721931171,-0.47356210930302306,0.484375,-0.24609375,9.765625
382,861000000,imu2_frame,0.025078354060193507,-0.013000518078984698,0.7233760992615033,0.6898761350449236,0.0359520869061019,-0.02895836278068829,-0.06340585930302306,0.484375,-0.24609375,9.765625
382,886000000,imu2_frame,0.02564862630991099,-0.0127319943939334,0.7228299402239348,0.6904324165354857,0.03559256603704088,-0.028668779152881407,-0.06277180070999283,0.29296875,0.40234375,9.76953125
382,911000000,imu2_frame,0.02626057325011035,-0.012493056635712077,0.7222873188213207,0.690981428765188,0.03523664037667048,-0.028382091361352592,-0.06214408270289291,0.40625,0.44140625,9.84375
382,936000000,imu2_frame,0.025113913602406793,-0.011853104985509939,0.7199622108394097,0.6934574321535553,-0.04484148462332952,0.0946647836386474,-0.2711284577028929,0.40625,0.44140625,9.84375
382,961000000,imu2_frame,0.024721653230509323,-0.010885535246537688,0.7187166601909577,0.6947781713236983,0.019611640376670476,0.0712272836386474,-0.1461284577028929,0.40625,0.44140625,9.84375
382,986000000,imu2_frame,0.024217555976997745,-0.010062254902145207,0.7174847415145338,0.6960803881037074,0.019415523972903772,0.07051501080226093,-0.14466717312586397,0.40625,0.09765625,9.76953125
383,11000000,imu2_frame,0.023862133193713247,-0.009254369282286286,0.716258830909945,0.6973652144982223,0.019221368733174732,0.06980986069423832,-0.14322050139460535,0.59765625,0.2890625,9.7265625
383,36000000,imu2_frame,0.023525485287370296,-0.008310161246590324,0.7150406511995493,0.698637502496233,0.019029155045842988,0.06911176208729594,-0.1417882963806593,0.40625,0.51953125,9.765625
383,61000000,imu2_frame,0.023607226470585455,-0.008455337503274953,0.7129868332379544,0.7007288931929279,-0.021986469954157012,-0.01682573791270406,-0.2335851713806593,0.40625,0.51953125,9.765625
383,86000000,imu2_frame,0.02323541600503899,-0.008345938274320595,0.7114181378287802,0.7023351720693083,-0.03175209495415701,0.02418988708729594,-0.1788976713806593,0.40625,0.51953125,9.765625
383,111000000,imu2_frame,0.023034755158066637,-0.008100371895062118,0.7098564547136328,0.7039230055420563,-0.03143457400461544,0.02394798821642298,-0.1771086946668527,0.4453125,0.94140625,9.8046875
383,136000000,imu2_frame,0.02281683205048897,-0.007939029321896213,0.7083082932075655,0.7054897063472941,-0.03112022826456929,0.023708508334258752,-0.17533760772018417,0.51953125,0.78515625,9.69140625
383,161000000,imu2_frame,0.022180280797672876,-0.008088491759192504,0.7062185655754368,0.7076001336075132,-0.07408897826456928,0.029567883334258752,-0.23588448272018417,0.51953125,0.78515625,9.69140625
383,186000000,imu2_frame,0.021076963387211527,-0.008539690226501735,0.7041350018846947,0.7097018630566294,-0.07408897826456928,0.029567883334258752,-0.23588448272018417,0.29296875,-0.28515625,9.80859375
383,211000000,imu2_frame,0.020165680375589908,-0.00869732773935227,0.702037878160796,0.7118008987439334,-0.07408897826456928,0.029567883334258752,-0.23588448272018417,0.13671875,0.36328125,9.6875
383,236000000,imu2_frame,0.019359502419934223,-0.009093009774563409,0.6999338700788917,0.7138873190887183,-0.07408897826456928,0.029567883334258752,-0.23588448272018417,0.59765625,0.171875,9.66015625
383,261000000,imu2_frame,0.019570303802736902,-0.009261656226241833,0.6993231121037629,0.7144777182043702,0.000129771735430711,-0.013400866665741248,-0.06791573272018417,0.59765625,0.171875,9.66015625
383,286000000,imu2_frame,0.01965344119872442,-0.009384244452124083,0.6987140694382311,0.7150694563286687,0.000129771735430711,-0.013400866665741248,-0.06791573272018417,0.3671875,0.05859375,9.69140625
383,311000000,imu2_frame,0.019929438818135012,-0.009367998197503691,0.6981055744540099,0.7156561080535838,0.00012847401807640404,-0.013266857999083836,-0.06723657539298232,0.4453125,0.51953125,9.76953125
383,336000000,imu2_frame,0.020384423322296192,-0.00976384820134818,0.6962081845320269,0.717484011211914,-0.015496525981923595,-0.048423107999083836,-0.20981470039298233,0.4453125,0.51953125,9.76953125
383,361000000,imu2_frame,0.020709127854154363,-0.010251875125510315,0.694309113920911,0.7193058357932952,-0.015496525981923595,-0.048423107999083836,-0.20981470039298233,0.40625,0.2109375,9.69140625
383,386000000,imu2_frame,0.019634074478179935,-0.010668127338026929,0.6921162428024458,0.721440088037469,-0.0936215259819236,0.033608142000916164,-0.24301782539298233,0.40625,0.2109375,9.69140625
383,411000000,imu2_frame,0.01848571703956663,-0.01099483653202179,0.6899170081910063,0.7235688727715822,-0.0936215259819236,0.033608142000916164,-0.24301782539298233,0.17578125,0.2109375,9.8046875
383,436000000,imu2_frame,0.01751795158010395,-0.011266627959299584,0.6877066044539285,0.7256898860100724,-0.0936215259819236,0.033608142000916164,-0.24301782539298233,0.328125,0.51953125,9.73046875
383,461000000,imu2_frame,0.017780336110089372,-0.010950044339427232,0.6860655113709271,0.7272400362219651,0.011847224018076405,0.000405017000916164,-0.18051782539298233,0.328125,0.51953125,9.73046875
383,486000000,imu2_frame,0.016077715124677164,-0.010092535276631837,0.6840831606474354,0.7291569632984897,-0.0740902759819236,0.14103001700091616,-0.21958032539298233,0.328125,0.51953125,9.73046875
383,511000000,imu2_frame,0.01430377023210332,-0.009437048131598515,0.682095716674015,0.7310620887275383,-0.0740902759819236,0.14103001700091616,-0.21958032539298233,0.484375,0.13671875,9.6875
383,536000000,imu2_frame,0.012575319852993181,-0.008705069593295702,0.6800997145275187,0.7329600680757162,-0.0740902759819236,0.14103001700091616,-0.21958032539298233,0.40625,0.2890625,9.765625
383,561000000,imu2_frame,0.012942553938534591,-0.009296776361904777,0.6804913682787078,0.7325827993783345,-0.019402775981923595,-0.050376232999083836,0.04409154960701768,0.40625,0.2890625,9.765625
383,586000000,imu2_frame,0.0130731879091442,-0.009111632883063683,0.681306535030745,0.7318247571847353,0.009894099018076405,0.008217517000916164,0.08901342460701768,0.40625,0.2890625,9.765625
383,611000000,imu2_frame,0.013188895792448863,-0.00891501374813694,0.6821128719688209,0.7310735978354667,0.009795158027895639,0.008135341830907002,0.0881232903609475,0.3671875,0.2890625,9.765625
383,636000000,imu2_frame,0.013330638741043623,-0.008779361519859181,0.6829101084916163,0.7303280089124531,0.009697206447616683,0.008053988412597933,0.08724205745733803,0.484375,0.25,9.73046875
383,661000000,imu2_frame,0.01442244818735197,-0.008869077229446845,0.6820414481226011,0.7311174977390477,0.05071283144761668,-0.05835226158740207,-0.09439856754266197,0.484375,0.25,9.73046875
383,686000000,imu2_frame,0.014008396752446608,-0.00965848302115076,0.6811642953322026,0.7319328393307273,-0.07624029355238332,-0.017336636587402067,-0.09439856754266197,0.484375,0.25,9.73046875
383,711000000,imu2_frame,0.013466208839040462,-0.010616469809767421,0.6802881013890277,0.7327441919911707,-0.07624029355238332,-0.017336636587402067,-0.09439856754266197,0.55859375,-0.171875,9.6875
383,736000000,imu2_frame,0.012880456086313847,-0.010718003834224292,0.6790306701743575,0.7339186380024566,-0.03327154355238332,0.03539773841259793,-0.137367317542662,0.55859375,-0.171875,9.6875
383,761000000,imu2_frame,0.012410925955350061,-0.010613776566117996,0.6777813063247311,0.7350821841540416,-0.032938828116859484,0.035043761028471954,-0.13599364436723535,0.40625,0.25,9.765625
383,786000000,imu2_frame,0.012516281495987549,-0.01067621229305082,0.6768504036638529,0.7359367447333136,-0.007548203116859484,-0.005971863971528046,-0.10083739436723535,0.40625,0.25,9.765625
383,811000000,imu2_frame,0.012581297823678889,-0.010694433830897477,0.6759282812158232,0.736782395747029,-0.007472721085690889,-0.005912145331812766,-0.099829020423563,0.29296875,0.25,9.76953125
383,836000000,imu2_frame,0.012685544740351993,-0.010754601815627084,0.6750137514386421,0.7376176861106024,-0.00739799387483398,-0.005853023878494639,-0.09883073021932737,0.40625,0.25,9.73046875
383,861000000,imu2_frame,0.0125232003953641,-0.010136596259648654,0.673189411224803,0.7392945525857266,0.01213325612516602,0.04883447612150536,-0.19844010521932737,0.40625,0.25,9.73046875
383,886000000,imu2_frame,0.012824601986345448,-0.010151277840571791,0.6716939740234431,0.7406481529057434,0.00627388112516602,-0.013665523878494639,-0.16133073021932737,0.40625,0.25,9.73046875
383,911000000,imu2_frame,0.013220558297010408,-0.010046392101818579,0.6702087795978137,0.74198684529718,0.00621114231391436,-0.013528868639709693,-0.1597174229171341,0.3671875,0.5546875,9.80859375
383,936000000,imu2_frame,0.013626470186845015,-0.010012118760966186,0.6687356310520334,0.7433079661550803,0.006149030890775216,-0.013393579953312595,-0.15812024868796276,0.484375,0.48046875,9.6875
383,961000000,imu2_frame,0.013953277976315556,-0.010007427051686456,0.6662586938468413,0.7455229777216943,-0.0016634691092247836,-0.011440454953312595,-0.26554212368796276,0.484375,0.48046875,9.6875
383,986000000,imu2_frame,0.015022008867008304,-0.010550282461045609,0.6660607259331099,0.7456716034281113,0.017867780890775217,-0.0837060799533126,-0.019448373687962754,0.484375,0.48046875,9.6875
384,11000000,imu2_frame,0.015868611748298782,-0.011180705684084214,0.6658678842564548,0.7458170953373354,0.017689103081867465,-0.08286901915377946,-0.01925388995108313,0.3671875,0.05859375,9.73046875
384,36000000,imu2_frame,0.01672031641683754,-0.011883662663446419,0.6656763139011496,0.7459586145970837,0.01751221205104879,-0.08204032896224167,-0.0190613510515723,0.51953125,-0.01953125,9.73046875
384,61000000,imu2_frame,0.01703575061228643,-0.012105506507246136,0.6647843490106279,0.7467429338291691,0.00969971205104879,-0.025399703962241674,-0.09523322605157229,0.51953125,-0.01953125,9.73046875
384,86000000,imu2_frame,0.017554370415456492,-0.012854597389635672,0.6640439685078791,0.7473768870480104,-0.005925287948951211,-0.06836845396224167,-0.07765510105157229,0.51953125,-0.01953125,9.73046875
384,111000000,imu2_frame,0.01823992121643884,-0.013377904697104715,0.6633050807925817,0.7480071568739701,-0.005866035069461699,-0.06768476942261925,-0.07687855004105658,0.4453125,0.51953125,9.84375
384,136000000,imu2_frame,0.018056281582526635,-0.01291509092915874,0.6623881400740004,0.7488318389404998,-0.005866035069461699,0.03778398057738074,-0.09836292504105658,0.4453125,0.51953125,9.84375
384,161000000,imu2_frame,0.017686321434767567,-0.012447987155089903,0.6614833142147796,0.7496479618229641,-0.005807374718767082,0.037406140771606936,-0.09737929579064601,0.17578125,0.25,9.765625
384,190000000,imu2_frame,0.01706444320726504,-0.012405572652666898,0.6598906400250314,0.7510654097697084,-0.039010499718767085,0.021781140771606936,-0.146207420790646,0.17578125,0.25,9.765625
384,211000000,imu2_frame,0.016695200556058436,-0.012424213725987567,0.6587455819805629,0.7520778998300465,-0.03862039472157941,0.021563329363890864,-0.14474534658273955,0.40625,0.25,9.8046875
384,236000000,imu2_frame,0.016445413037181448,-0.012288201761870626,0.6573896114061429,0.7532711645236239,-0.038234190774363616,0.021347696070251956,-0.14329789311691216,0.40625,0.75,9.765625
384,261000000,imu2_frame,0.016607344160398645,-0.012336580066761063,0.6552897286930884,0.7550942831074363,-0.024562315774363616,-0.011855428929748044,-0.22142289311691216,0.40625,0.75,9.765625
384,286000000,imu2_frame,0.01601301231041196,-0.011857193355347037,0.6534371389821793,0.7567185049946016,-0.042140440774363616,0.060410196070251956,-0.19603226811691216,0.40625,0.75,9.765625
384,311000000,imu2_frame,0.015318982818322927,-0.01143155865181787,0.6516013657968734,0.758320716005999,-0.04171903636661998,0.059806094109549436,-0.19407194543574302,0.328125,0.51953125,9.73046875
384,336000000,imu2_frame,0.014691874774722119,-0.011074014585842533,0.649779148248327,0.7599003707843778,-0.04130184600295378,0.059208033168453945,-0.1921312259813856,0.484375,0.51953125,9.73046875
384,361000000,imu2_frame,0.014701275449994418,-0.01075391371490074,0.6480261840894193,0.7614002170832777,-0.004192471002953781,0.024051783168453942,-0.1843187259813856,0.484375,0.51953125,9.73046875
384,386000000,imu2_frame,0.014956664620220165,-0.011241657652943052,0.646049555549136,0.7630661144956028,-0.03153622100295378,-0.038448216831546055,-0.2058031009813856,0.484375,0.51953125,9.73046875
384,411000000,imu2_frame,0.015124233058840558,-0.011900121140419176,0.6440705335546296,0.7647239975951324,-0.03153622100295378,-0.038448216831546055,-0.2058031009813856,0.63671875,0.171875,9.69140625
384,436000000,imu2_frame,0.01535525995057254,-0.01226513040174895,0.6420845166349047,0.7663819257170666,-0.03153622100295378,-0.038448216831546055,-0.2058031009813856,0.29296875,0.6328125,9.76953125
384,461000000,imu2_frame,0.01607373112955987,-0.012439652306861995,0.6405661993748888,0.767633919545293,0.009479403997046219,-0.052120091831546055,-0.1569749759813856,0.29296875,0.6328125,9.76953125
384,486000000,imu2_frame,0.016638132646995266,-0.012775608762710023,0.6390637676670979,0.7688676460990517,0.009384609957075758,-0.0515988909132306,-0.15540522622157174,0.3671875,0.2109375,9.765625
384,511000000,imu2_frame,0.01724486408851577,-0.01313802655252835,0.6375727752262391,0.7700850363506522,0.009290763857504998,-0.05108290200409829,-0.15385117395935602,0.484375,0.25,9.765625
384,536000000,imu2_frame,0.01741780845219566,-0.013453820211166805,0.6374171611866591,0.7702045035542111,-0.012193611142495002,-0.02569227700409829,-0.01517929895935603,0.484375,0.25,9.765625
384,561000000,imu2_frame,0.017633751566839696,-0.013726479734539372,0.6372617847975766,0.7703233426272266,-0.01207167503107005,-0.02543535423405731,-0.015027505969762468,0.484375,0.36328125,9.73046875
384,586000000,imu2_frame,0.017864617586027563,-0.014230692084865418,0.6367809010001605,0.7707064466855812,-0.02379042503107005,-0.04106035423405731,-0.04823063096976247,0.484375,0.36328125,9.73046875
384,611000000,imu2_frame,0.01805667049597787,-0.014774213094441846,0.6363053120115791,0.7710844500986171,-0.02355252078075935,-0.04064975069171674,-0.047748324660064845,0.51953125,0.25,9.8046875
384,636000000,imu2_frame,0.01836207485401128,-0.015138209018304883,0.6358304998652153,0.7714617581422454,-0.023316995572951756,-0.040243253184799564,-0.0472708414134642,0.40625,0.6328125,9.73046875
384,661000000,imu2_frame,0.018566510453372962,-0.015175795410773095,0.635871969732667,0.7714219455210835,-0.011598245572951756,-0.014852628184799568,0.005463533586535802,0.40625,0.6328125,9.73046875
384,686000000,imu2_frame,0.018902468429960847,-0.015192071193789278,0.635254124698766,0.7719223372291425,-0.0037857455729517564,-0.020712003184799568,-0.0628958414134642,0.40625,0.6328125,9.73046875
384,711000000,imu2_frame,0.019176122157916718,-0.01522747533938123,0.6346434038789879,0.7724170830883178,-0.0037478881172222393,-0.02050488315295157,-0.06226688299932956,0.3671875,0.51953125,9.73046875
384,736000000,imu2_frame,0.019473796153214568,-0.015361198692708494,0.634038140236448,0.7729039018944157,-0.003710409236050017,-0.020299834321422055,-0.061644214169336256,0.55859375,0.44140625,9.80859375
384,761000000,imu2_frame,0.01931814866364359,-0.015676977521147894,0.6335979501926744,0.7732623610519603,-0.04081978423605002,-0.008581084321422055,-0.044066089169336256,0.55859375,0.44140625,9.80859375
384,786000000,imu2_frame,0.01866698303549736,-0.01529546660397842,0.6321537011014907,0.7744671010633093,-0.03886665923605002,0.05977829067857794,-0.14953483916933627,0.55859375,0.44140625,9.80859375
384,811000000,imu2_frame,0.017974270287188388,-0.01494243784530718,0.6307227291796028,0.7756561661297586,-0.038477992643689514,0.059180507771792165,-0.1480394907776429,0.51953125,0.328125,9.765625
384,836000000,imu2_frame,0.017338108771743122,-0.01458785619407047,0.62930253346433,0.7768300366304436,-0.03809321271725262,0.05858870269407424,-0.14655909586986646,0.55859375,0.40234375,9.765625
384,861000000,imu2_frame,0.017512664420672296,-0.014617441197391116,0.6287645155957008,0.7772611021564334,-0.0048900877172526214,-0.005864422305925756,-0.05476222086986647,0.55859375,0.40234375,9.765625
384,886000000,imu2_frame,0.017663810085946932,-0.014406256436828342,0.6268820951229055,0.7787806420315291,0.0029224122827473786,0.009760577694074244,-0.19343409586986646,0.55859375,0.40234375,9.765625
384,911000000,imu2_frame,0.017586531961149274,-0.014229038663267966,0.6250200821849646,0.7802808117708642,0.002893188159919905,0.0096629719171335,-0.1914997549111678,0.328125,0.01953125,9.8046875
384,936000000,imu2_frame,0.01850095272174123,-0.014577381260540994,0.6253360841212624,0.779999997820422,0.0439088131599199,-0.0723682780828665,0.0331096200888322,0.328125,0.01953125,9.8046875
384,961000000,imu2_frame,0.019623055084174133,-0.01488835779613746,0.6256428600381376,0.7797206449713879,0.04346972502832071,-0.07164459530203783,0.032778523887943875,0.55859375,0.40234375,9.765625
384,986000000,imu2_frame,0.01883765839913957,-0.014960935841302599,0.6236299722239823,0.781349454961546,-0.06981152497167929,0.03773040469796217,-0.2055027261120561,0.55859375,0.40234375,9.765625
385,11000000,imu2_frame,0.01808683702951282,-0.014966616565573462,0.6216114597622152,0.7829738564007964,-0.06981152497167929,0.03773040469796217,-0.2055027261120561,0.484375,0.51953125,9.66015625
385,36000000,imu2_frame,0.017132902325222243,-0.015058784705601505,0.6195935048179139,0.7845913493332428,-0.06981152497167929,0.03773040469796217,-0.2055027261120561,0.3671875,0.09765625,9.76953125
385,61000000,imu2_frame,0.016537807883296635,-0.015038034534189193,0.6190898971233214,0.785001947582042,-0.03856152497167929,0.027964779697962166,-0.051205851112056125,0.3671875,0.09765625,9.76953125
385,86000000,imu2_frame,0.01708718594444642,-0.015690319373625677,0.6187834528729672,0.7852190015562932,0.0005009750283207059,-0.07164459530203783,-0.029721476112056125,0.3671875,0.09765625,9.76953125
385,111000000,imu2_frame,0.017790049634462842,-0.01622396145167286,0.6184753102261141,0.7854352855897996,0.0004959652780374985,-0.07092814934901745,-0.029424261350935562,0.40625,0.48046875,9.80859375
385,136000000,imu2_frame,0.018441589858346978,-0.01685192575845597,0.6181708990107376,0.7856466508411937,0.0004910056252571239,-0.07021886785552728,-0.029130018737426207,0.51953125,0.2890625,9.73046875
385,161000000,imu2_frame,0.018640742281630568,-0.016842283550226645,0.6181499104119316,0.7856586717332946,0.004397255625257124,-0.007718867855527282,-0.0017862687374262075,0.51953125,0.2890625,9.73046875
385,186000000,imu2_frame,0.01887904918418357,-0.01701167158277499,0.6175292747821803,0.7861372522141764,-0.003415244374742876,-0.021390742855527282,-0.06233314373742621,0.51953125,0.2890625,9.73046875
385,211000000,imu2_frame,0.019182246659205936,-0.017172526951462642,0.6169126391069993,0.7866104127465159,-0.0033810919309954475,-0.021176835426972008,-0.061709812300051944,0.59765625,0.40234375,9.76953125
385,236000000,imu2_frame,0.019493814148498274,-0.01724749623309797,0.6163009884625509,0.787080432169239,-0.0033472810116854934,-0.02096506707270229,-0.06109271417705142,0.484375,0.51953125,9.73046875
385,261000000,imu2_frame,0.01986976034191622,-0.01715432895193726,0.6168471754803322,0.7866450811669135,0.012277718988314507,-0.013152567072702289,0.05609478582294858,0.484375,0.51953125,9.73046875
385,286000000,imu2_frame,0.02047977858660285,-0.016894609272828123,0.6158791715003996,0.7873931654253444,0.03180896898831451,-0.015105692072702289,-0.09820208917705142,0.484375,0.51953125,9.73046875
385,311000000,imu2_frame,0.02105097730862676,-0.0166354038894802,0.6149204511329623,0.7881325767091598,0.03149087929843136,-0.014954635151975267,-0.0972200682852809,0.4453125,0.48046875,9.73046875
385,336000000,imu2_frame,0.02097219125092944,-0.016679023989893023,0.615185156740883,0.7879271541700884,-0.021243495701568638,-0.0012827601519752665,0.02777993171471909,0.4453125,0.48046875,9.73046875
385,361000000,imu2_frame,0.0208423875882109,-0.016810681906203603,0.6154490399225503,0.7877216990231274,-0.02103106074455295,-0.0012699325504555142,0.027502132397571898,0.51953125,0.2890625,9.73046875
385,386000000,imu2_frame,0.021156285629528825,-0.016679682107572157,0.6149117472085457,0.7881356120161591,0.01803143925544705,-0.007129307550455514,-0.0545291176024281,0.51953125,0.2890625,9.73046875
385,411000000,imu2_frame,0.021337186710711907,-0.016674132788376823,0.6143837077258925,0.7885425527135571,0.017851124862892576,-0.007058014474950959,-0.05398382642640382,0.55859375,-0.0546875,9.76953125
385,436000000,imu2_frame,0.021683423059573576,-0.016538911718496356,0.6138553863297728,0.7889473101782607,0.01767261361426365,-0.006987434330201449,-0.053443988162139786,0.55859375,0.36328125,9.73046875
385,461000000,imu2_frame,0.02127175224310631,-0.016217814578695443,0.6125023735248324,0.7900160362127124,-0.02334301138573635,0.04184069066979855,-0.1374283631621398,0.55859375,0.36328125,9.73046875
385,486000000,imu2_frame,0.021818820580797406,-0.016477748098132898,0.6114408477615816,0.790817622827587,0.00986011361426365,-0.04214368433020145,-0.10617836316213979,0.55859375,0.36328125,9.73046875
385,511000000,imu2_frame,0.02240178684839749,-0.016695290645322387,0.6103871539382951,0.7916103520819919,0.009761512478121015,-0.041722247486899434,-0.1051165795305184,0.55859375,0.48046875,9.76953125
385,536000000,imu2_frame,0.0229715697784655,-0.016811086748130814,0.6093420113394634,0.7923963702346429,0.009663897353339805,-0.04130502501203044,-0.1040654137352132,0.40625,0.59375,9.8046875
385,561000000,imu2_frame,0.02351797780486734,-0.016146004968427746,0.608240534877728,0.7932399781750695,0.046773272353339806,0.009476224987969559,-0.1118779137352132,0.40625,0.59375,9.8046875
385,586000000,imu2_frame,0.02347867872470179,-0.01641164316497305,0.6087791342385844,0.7928224109658402,-0.031351727646660194,-0.01982065001203044,0.056090836264786795,0.40625,0.59375,9.8046875
385,611000000,imu2_frame,0.023429504964333277,-0.01665422968710292,0.6093120963403919,0.7924092782040937,-0.031038210370193595,-0.019622443511910136,0.055529927902138926,0.3671875,0.59375,9.8046875
385,636000000,imu2_frame,0.023344438930612568,-0.017093478573979533,0.6098420073318077,0.7919946819611653,-0.030727828266491657,-0.019426219076791033,0.054974628623117534,0.63671875,0.2890625,9.76953125
385,661000000,imu2_frame,0.02327046076137042,-0.01714576704785785,0.6096861553352597,0.7921157114467582,-0.013149703266491657,0.004011280923208965,-0.015337871376882466,0.63671875,0.2890625,9.76953125
385,686000000,imu2_frame,0.023838612013973443,-0.01753014163375394,0.6097717442035533,0.79202451646556,0.012240921733508343,-0.04872309407679103,0.010052753623117534,0.63671875,0.2890625,9.76953125
385,711000000,imu2_frame,0.02439598497410904,-0.017810185714291788,0.6098554373747361,0.7919368527265509,0.012118512516173258,-0.04823586313602313,0.00995222608688636,0.484375,0.40234375,9.73046875
385,736000000,imu2_frame,0.024143687842209213,-0.01753379449927021,0.6088722382298585,0.7927069104661557,-0.015225237483826742,0.025982886863976873,-0.09942277391311363,0.484375,0.40234375,9.73046875
385,761000000,imu2_frame,0.023902039154630267,-0.017331386193934407,0.6078982919087483,0.7934658040969841,-0.015072985108988473,0.025723057995337105,-0.0984285461739825,0.59765625,0.328125,9.7265625
385,786000000,imu2_frame,0.02389368371930557,-0.017115447668592902,0.6076221261807742,0.7936822444183698,0.0025051398910115267,0.015957432995337105,-0.0281160461739825,0.59765625,0.328125,9.7265625
385,811000000,imu2_frame,0.023748253691244628,-0.016982866638343058,0.6073504331152432,0.7938973825892659,0.0025051398910115267,0.015957432995337105,-0.0281160461739825,0.55859375,0.01953125,9.69140625
385,836000000,imu2_frame,0.023588243977824545,-0.016863912953130306,0.6070791396786082,0.7941121591771738,0.0025051398910115267,0.015957432995337105,-0.0281160461739825,0.55859375,-0.01953125,9.69140625
385,861000000,imu2_frame,0.023732459029139452,-0.016612534786723428,0.6072965115751527,0.7939469384694675,0.029848889891011525,0.010098057995337107,0.0207120788260175,0.55859375,-0.01953125,9.69140625
385,886000000,imu2_frame,0.02387444679633479,-0.016338818071328635,0.6056703631619814,0.7951895780261677,0.025942639891011525,0.010098057995337107,-0.1648347961739825,0.55859375,-0.01953125,9.69140625
385,911000000,imu2_frame,0.024237674942295607,-0.015850426057648075,0.6040497379601975,0.796420249100561,0.02568321349210141,0.009997077415383736,-0.16318644821224268,0.484375,0.59375,9.765625
385,936000000,imu2_frame,0.024666636303270605,-0.015365038745509258,0.6024407608264445,0.797634378855805,0.025426381357180398,0.009897106641229898,-0.16155458373012024,0.55859375,0.7109375,9.73046875
385,961000000,imu2_frame,0.025156409348891455,-0.015035138264044928,0.6019757648377824,0.7979763644582584,0.025426381357180398,-0.0018216433587701017,-0.046320208730120244,0.55859375,0.7109375,9.73046875
385,986000000,imu2_frame,0.02535405884805607,-0.015157134077962464,0.6027068852219053,0.7974157281447245,-0.011682993642819602,-0.015493518358770102,0.07477354126987976,0.55859375,0.7109375,9.73046875
386,11000000,imu2_frame,0.02546009021285851,-0.015318142943555055,0.6034329927005024,0.7968599385234707,-0.011566163706391406,-0.015338583175182401,0.07402580585718097,0.51953125,0.51953125,9.73046875
386,36000000,imu2_frame,0.02537585876857606,-0.015616063718936642,0.6041580405627268,0.7963072688159327,-0.011450502069327493,-0.015185197343430577,0.07328554779860916,0.51953125,0.05859375,9.8046875
386,61000000,imu2_frame,0.025530176691934612,-0.01562910684356546,0.6042679381799371,0.7962186885429899,0.015893247930672507,-0.009325822343430577,0.01078554779860915,0.51953125,0.05859375,9.8046875
386,86000000,imu2_frame,0.0256398878227135,-0.015757426457285038,0.6038880311710961,0.7965008132275693,0.006127622930672508,-0.015185197343430577,-0.03804257720139085,0.51953125,0.05859375,9.8046875
386,111000000,imu2_frame,0.025829523493704435,-0.01589710107169189,0.6035096455622451,0.7967786553409535,0.0060663467013657825,-0.015033345369996272,-0.03766215142937694,0.63671875,0.171875,9.765625
386,136000000,imu2_frame,0.025867272936973797,-0.01606672139830567,0.6036368752595892,0.7966776433923276,-0.0036992782986342175,-0.009173970369996272,0.013119098570623058,0.63671875,0.171875,9.765625
386,161000000,imu2_frame,0.02592978934851438,-0.016040493209274885,0.6037599655337158,0.7965828598587037,-0.0036622855156478755,-0.009082230666296308,0.01298790758491683,0.3671875,0.44140625,9.80859375
386,186000000,imu2_frame,0.02536305190358029,-0.016067222653613766,0.6039219745453199,0.7964777514881489,-0.04663103551564787,0.018261519333703694,0.01689415758491683,0.3671875,0.44140625,9.80859375
386,211000000,imu2_frame,0.0247875931454685,-0.016257575760918325,0.6040843149876823,0.796368888670505,-0.046164725160491395,0.018078904140366656,0.016725216009067664,0.59765625,0.2109375,9.7265625
386,236000000,imu2_frame,0.024206877260329166,-0.016455608863868747,0.6042451629386087,0.7962606502242322,-0.04570307790888648,0.01789811509896299,0.016557963848976988,0.59765625,0.171875,9.765625
386,261000000,imu2_frame,0.02443839608457838,-0.0165552486314075,0.604407500817487,0.7961282946203615,0.010937547091113518,-0.01530500990103701,0.016557963848976988,0.59765625,0.171875,9.765625
386,286000000,imu2_frame,0.02405136712689976,-0.016065585064262873,0.6028945982138594,0.7972963891555129,-0.0046874529088864825,0.05110124009896299,-0.15336391115102302,0.59765625,0.171875,9.765625
386,311000000,imu2_frame,0.023780139962144536,-0.015503096217738198,0.6013906851070964,0.7984506264118412,-0.004640578379797618,0.05059022769797336,-0.15183027203951277,0.59765625,0.44140625,9.8046875
386,336000000,imu2_frame,0.02354288184433027,-0.01495566779737016,0.5998988632535209,0.7995895288098338,-0.004594172595999642,0.05008432542099363,-0.15031196931911767,0.63671875,0.48046875,9.8046875
386,361000000,imu2_frame,0.024341935585306555,-0.014895978954171243,0.599699066609513,0.7997165807275953,0.04228082740400036,-0.029993799579006372,-0.01945259431911766,0.63671875,0.48046875,9.8046875
386,386000000,imu2_frame,0.023904020370614624,-0.014827952292527475,0.5998541984009794,0.7996147011540309,-0.03584417259599964,0.030553075420993628,0.01570365568088234,0.63671875,0.48046875,9.8046875
386,411000000,imu2_frame,0.023569479918496283,-0.014690651381211301,0.6000044259469229,0.79951444841383,-0.035485730870039645,0.030247544666783692,0.01554661912407352,0.63671875,0.7109375,9.80859375
386,436000000,imu2_frame,0.02307289182895048,-0.0147137750718286,0.6001589305885637,0.7994125371299705,-0.035130873561339246,0.029945069220115854,0.015391152932832781,0.67578125,0.25,9.69140625
386,461000000,imu2_frame,0.023287888902305428,-0.014654446585454917,0.5999821189997508,0.7995401042513858,0.01369725143866075,0.000648194220115853,-0.01781197206716722,0.67578125,0.25,9.69140625
386,486000000,imu2_frame,0.023205656549007157,-0.014416547987843491,0.5992832686209306,0.8000707622449762,0.001978501438660751,0.026038819220115854,-0.07054634706716723,0.67578125,0.25,9.69140625
386,511000000,imu2_frame,0.023190940133413957,-0.014108585762746192,0.5985885372633359,0.8005965845295892,0.0019587164242741437,0.025778431027914696,-0.06984088359649554,0.63671875,0.44140625,9.73046875
386,536000000,imu2_frame,0.02382119328645274,-0.0148309439563647,0.5979220674321885,0.8010629158370709,-0.005853783575725856,-0.07187781897208531,-0.06398150859649554,0.63671875,0.44140625,9.73046875
386,561000000,imu2_frame,0.024471548610852822,-0.015487631235951796,0.5972598394028593,0.8015247724329901,-0.005795245739968598,-0.07115904078236446,-0.0633416935105306,0.59765625,0.5546875,9.8046875
386,586000000,imu2_frame,0.02447866750242075,-0.014644679264312616,0.5960538068437318,0.8024376533747943,0.023501629260031402,0.05579408421763555,-0.1219354435105306,0.59765625,0.5546875,9.8046875
386,611000000,imu2_frame,0.024419987621156717,-0.013821079283299105,0.5948601131373367,0.8033393353809226,0.02326661296743109,0.05523614337545919,-0.12071608907542529,0.51953125,0.44140625,9.7265625
386,636000000,imu2_frame,0.024316386035433936,-0.01304804891620567,0.5936784165252244,0.8042290715596884,0.023033946837756777,0.054683781941704604,-0.11950892818467104,0.51953125,0.328125,9.73046875
386,661000000,imu2_frame,0.02391173264718893,-0.012920808288298568,0.5938548297684938,0.8041130038219876,-0.023841053162243223,0.0292931569417046,0.017209821815328964,0.51953125,0.328125,9.73046875
386,686000000,imu2_frame,0.023687506527120327,-0.012876845290226726,0.5941460500136806,0.8039051935042095,-0.016028553162243223,0.0156212819417046,0.028928571815328964,0.51953125,0.328125,9.73046875
386,711000000,imu2_frame,0.023570929426931515,-0.01280740743864391,0.5944314069613759,0.803698752032483,-0.01586826763062079,0.015465069122287555,0.028639286097175677,0.59765625,0.51953125,9.7265625
386,736000000,imu2_frame,0.023364761467211986,-0.012809799264253343,0.5947168389144395,0.8034935460076866,-0.015709584954314584,0.01531041843106468,0.02835289323620392,0.59765625,0.2890625,9.6875
386,761000000,imu2_frame,0.0235821188134706,-0.012934872732634186,0.5958213169842317,0.8026665129222931,0.007727915045685417,-0.01203333156893532,0.11038414323620392,0.59765625,0.2890625,9.6875
386,786000000,imu2_frame,0.023280640785949595,-0.01321969046042962,0.5962361547431099,0.8023625734827594,-0.035240834954314584,0.0016385434310646789,0.04202476823620392,0.59765625,0.2890625,9.6875
386,811000000,imu2_frame,0.023024423319444706,-0.013518403435603541,0.5966456770444042,0.8020605119089108,-0.034888426604771434,0.0016221579967540317,0.04160452055384188,0.67578125,0.328125,9.73046875
386,836000000,imu2_frame,0.022774475777529796,-0.013811480084618084,0.5970506699222095,0.801761226186682,-0.03453954233872372,0.0016059364167864913,0.041188475348303465,0.67578125,0.328125,9.73046875
386,861000000,imu2_frame,0.023100518644559507,-0.014136420770216809,0.5981185120295032,0.8009499192919448,0.002569832661276278,-0.02769093858321351,0.10759472534830347,0.67578125,0.328125,9.73046875
386,886000000,imu2_frame,0.02275117447893087,-0.013923247966800029,0.5984582244433494,0.8007098605749762,-0.016961417338723722,0.03871531141678649,0.033375975348303465,0.67578125,0.328125,9.73046875
386,911000000,imu2_frame,0.022432501539176333,-0.013647806375747522,0.5987930700613796,0.8004732222268854,-0.016791803165336485,0.038328158302618626,0.03304221559482043,0.59765625,0.44140625,9.73046875
386,936000000,imu2_frame,0.022286795807784057,-0.01315723624157094,0.599113558555012,0.8002456684185524,0.004692571834663515,0.044187533302618626,0.03108909059482043,0.59765625,0.44140625,9.73046875
386,961000000,imu2_frame,0.022116306929124852,-0.012671726588653866,0.5994313270145679,0.8000202375606715,0.0046456461163168795,0.04374565796959244,0.030778199688872222,0.55859375,0.40234375,9.765625
386,986000000,imu2_frame,0.02181796965995598,-0.012256991576052315,0.599689011864381,0.7998417539779631,-0.0070731038836831205,0.04569878296959244,0.024918824688872222,0.55859375,0.40234375,9.765625
387,11000000,imu2_frame,0.021527985956070122,-0.011850637395598308,0.5999439143398365,0.7996645595876989,-0.007002372844846288,0.04524179513989651,0.0246696364419835,0.55859375,0.40234375,9.73046875
387,36000000,imu2_frame,0.021255600054116492,-0.011467678117900797,0.6001960183096879,0.799488230951601,-0.006932349116397826,0.04478937718849755,0.024422940077563668,0.59765625,0.40234375,9.76953125
387,61000000,imu2_frame,0.021520243137565395,-0.011808004146833763,0.600604383210068,0.7991694595279667,-0.006932349116397826,-0.02747624781150245,0.04200106507756367,0.59765625,0.40234375,9.76953125
387,86000000,imu2_frame,0.02182605216149513,-0.011839292991046314,0.600980839084692,0.7988776412202155,0.010645775883602174,-0.009898122811502449,0.03809481507756367,0.59765625,0.40234375,9.76953125
387,111000000,imu2_frame,0.02209939804466359,-0.01186600149490664,0.6013539580041094,0.7985889003782722,0.010539318124766153,-0.009799141583387424,0.037713866926788034,0.55859375,0.36328125,9.765625
387,136000000,imu2_frame,0.02239759836072184,-0.011896436455620761,0.6017225707523629,0.798302430307272,0.010433924943518491,-0.00970115016755355,0.03733672825752015,0.59765625,0.40234375,9.7265625
387,161000000,imu2_frame,0.022353056560389335,-0.011881611187112721,0.6021909841616881,0.7979506167504251,-0.009097325056481509,0.00983009983244645,0.04710235325752015,0.59765625,0.40234375,9.7265625
387,186000000,imu2_frame,0.02219136883550643,-0.011593286976764514,0.6027250082299198,0.7975560816021179,-0.003237950056481509,0.03326759983244645,0.05296172825752015,0.59765625,0.40234375,9.7265625
387,211000000,imu2_frame,0.022034240228068085,-0.01131058808209577,0.6032533830838508,0.7971649256287546,-0.003205570555916694,0.032934923834121985,0.05243211097494495,0.59765625,0.40234375,9.7265625
387,236000000,imu2_frame,0.021881594262046843,-0.011033431327265511,0.6037761731775076,0.7967771281411271,-0.0031735148503575267,0.03260557459578076,0.0519077898651955,0.59765625,0.40234375,9.7265625
387,261000000,imu2_frame,0.021520787814731754,-0.010427321923179142,0.6039768329164074,0.7966430266748149,-0.0012203898503575267,0.06385557459578077,0.0187046648651955,0.59765625,0.40234375,9.7265625
387,286000000,imu2_frame,0.02109688253133495,-0.009857659281501452,0.6041749731785212,0.7965113620568649,-0.007008967201853952,0.06515061259982295,0.018517618216543547,0.59765625,0.40234375,9.7265625
387,311000000,imu2_frame,0.020653544283216727,-0.009295194748430918,0.6043713950457706,0.7963807175676463,-0.006938877529835412,0.06449910647382473,0.01833244203437811,0.55859375,0.36328125,9.765625
387,336000000,imu2_frame,0.021218997423916423,-0.009952023151763446,0.6047880246941699,0.7960415545497828,-0.001079502529835412,-0.06245401852617527,0.04372306703437811,0.55859375,0.36328125,9.765625
387,361000000,imu2_frame,0.021775465935100238,-0.01059623230780802,0.6051997736225981,0.7957052110872118,-0.0010687075045370579,-0.06182947834091352,0.043285836364034325,0.55859375,0.36328125,9.73046875
387,386000000,imu2_frame,0.022089132775423778,-0.011202168006123482,0.6056322199406832,0.7953591615207009,-0.014740582504537058,-0.04815760334091352,0.045238961364034325,0.55859375,0.36328125,9.73046875
387,411000000,imu2_frame,0.022409835125731935,-0.011811912757373075,0.6060596541288097,0.7950157065391334,-0.014593176679491688,-0.047676027307504386,0.04478657175039398,0.59765625,0.36328125,9.7265625
387,436000000,imu2_frame,0.02273965714301866,-0.012396854993515559,0.6064817615784207,0.7946754676294113,-0.01444724491269677,-0.04719926703442934,0.04433870603289004,0.59765625,0.40234375,9.76953125
387,461000000,imu2_frame,0.02270377999899241,-0.012217450712543923,0.6068275297042715,0.7944152701609251,-0.0007753699126967703,0.01920698296557066,0.03457308103289004,0.59765625,0.40234375,9.76953125
387,486000000,imu2_frame,0.02268812530474775,-0.011906816751902005,0.607153913407019,0.7941710156632102,0.006966758786430197,0.026749288135914952,0.03229375647256114,0.59765625,0.40234375,9.76953125
387,511000000,imu2_frame,0.02264629316148432,-0.011598595440776462,0.6074775318807965,0.7939292577112027,0.006897091198565896,0.026481795254555802,0.031970818907835534,0.55859375,0.36328125,9.765625
387,536000000,imu2_frame,0.022623305198306246,-0.01128462536126562,0.6077972873920909,0.7936896753336131,0.006828120286580237,0.026216977302010246,0.03165111071875718,0.55859375,0.40234375,9.73046875
387,561000000,imu2_frame,0.02257849328160218,-0.011024779296064787,0.6081126469912426,0.793453007084799,0.002892651583714434,0.024021213778990143,0.03133459961156961,0.55859375,0.40234375,9.73046875
387,586000000,imu2_frame,0.02252118401034862,-0.010750941147685163,0.6084252972690192,0.7932186780316741,0.00286372506787729,0.025714595391200242,0.031021253615453916,0.55859375,0.40234375,9.73046875
387,611000000,imu2_frame,0.02246618179403236,-0.010482402523367412,0.6087347212870536,0.7929863990085257,0.0028350878171985168,0.02545744943728824,0.030711041079299374,0.55859375,0.40234375,9.73046875
387,636000000,imu2_frame,0.022397595706638827,-0.010231286263837581,0.6090414394230486,0.7927560744349114,0.0028067369390265317,0.025202874942915357,0.030403930668506378,0.55859375,0.36328125,9.73046875
387,661000000,imu2_frame,0.02242966232297971,-0.010395414877613907,0.6094536195623572,0.7924362000817107,-0.01086513806097347,-0.006047125057084644,0.04212268066850638,0.55859375,0.36328125,9.73046875
387,686000000,imu2_frame,0.022154822007347346,-0.010273698154682327,0.6097773906348638,0.7921964080066166,-0.01672451306097347,0.027155999942915357,0.03235705566850638,0.55859375,0.36328125,9.73046875
387,711000000,imu2_frame,0.021902329084419775,-0.010142196502150157,0.610097244210399,0.7919588224381785,-0.016557267930363734,0.026884439943486202,0.032033485111821317,0.55859375,0.40234375,9.73046875
387,736000000,imu2_frame,0.021986634993180567,-0.010090283215773248,0.6104326860449304,0.7916986231352645,0.0010208570696362664,0.005400064943486203,0.033986610111821317,0.55859375,0.40234375,9.73046875
387,761000000,imu2_frame,0.022058298100948434,-0.010023466075955433,0.6107647464299116,0.7914413346111763,0.0010106484989399036,0.005346064294051341,0.033646744010703104,0.51953125,0.40234375,9.73046875
387,786000000,imu2_frame,0.022125306053912094,-0.009991284330643016,0.611092597031307,0.7911867560336041,-0.0009330517360494955,0.003359009901110827,0.03331027657059607,0.51953125,0.40234375,9.73046875
387,811000000,imu2_frame,0.022204269791294442,-0.009975330889918489,0.6114169742337099,0.7909340976311282,-0.0009237212186890007,0.0033254198020997187,0.03297717380489011,0.55859375,0.40234375,9.73046875
387,836000000,imu2_frame,0.02228164916047412,-0.009959249829435407,0.6117380170206258,0.7906838432554424,-0.0009144840065021106,0.0032921656040787216,0.03264740206684121,0.55859375,0.40234375,9.765625
387,861000000,imu2_frame,0.022317403831278008,-0.009729083037586793,0.6119871240038711,0.7904929085595581,0.006898015993497889,0.01891716560407872,0.024834902066841212,0.55859375,0.40234375,9.765625
387,886000000,imu2_frame,0.022379712974843372,-0.009694588364105288,0.6122507224436157,0.7902874263651706,-0.0009144840065021106,0.005245290604078722,0.026788027066841212,0.55859375,0.40234375,9.765625
387,911000000,imu2_frame,0.022415137591319283,-0.009657549046793935,0.6125121471012187,0.7900842758887345,-0.0009053391664370896,0.005192837698037934,0.026520146796172803,0.51953125,0.36328125,9.73046875
387,936000000,imu2_frame,0.022478777179614978,-0.009624704585991012,0.6127703280586756,0.7898826461500498,-0.0008962857747727188,0.005140909321057555,0.02625494532821107,0.55859375,0.40234375,9.73046875
387,961000000,imu2_frame,0.022394980446190083,-0.009523601249464933,0.6130888631769221,0.7896390388769321,-0.006755660774772718,0.016859659321057555,0.03211432032821107,0.55859375,0.40234375,9.73046875
387,986000000,imu2_frame,0.022236683230484642,-0.009363026865468091,0.6133869307677847,0.789413919822865,-0.008621697917024992,0.02442543772784698,0.029859583374928958,0.55859375,0.40234375,9.73046875
388,11000000,imu2_frame,0.022082730732803764,-0.009205622719112256,0.6136818897133165,0.7891908183396642,-0.008535480937854742,0.02418118335056851,0.029560987541179667,0.55859375,0.40234375,9.73046875
388,36000000,imu2_frame,0.021917278364984277,-0.009063642989457556,0.6139742429670845,0.7889696523047175,-0.008450126128476194,0.023939371517062824,0.02926537766576787,0.55859375,0.36328125,9.73046875
388,61000000,imu2_frame,0.02189509381953974,-0.009027850746703179,0.6143017156760774,0.7887157313601376,-0.004543876128476195,0.010267496517062824,0.03317162766576787,0.55859375,0.36328125,9.73046875
388,86000000,imu2_frame,0.021864327029547187,-0.008939414835954212,0.6145889592217404,0.7884937851807545,-0.0025648436171914328,0.014032009051892197,0.02897272388911019,0.55859375,0.36328125,9.73046875
388,111000000,imu2_frame,0.02183756182757942,-0.008824482374345317,0.6148728615051224,0.7882744532133171,-0.0025391951810195186,0.013891688961373274,0.02868299665021909,0.51953125,0.40234375,9.765625
388,136000000,imu2_frame,0.0217461164051978,-0.008701347396312772,0.6150782642554844,0.7881180887501826,-0.006380990729209324,0.01761995957175954,0.020661791683716898,0.51953125,0.40234375,9.765625
388,161000000,imu2_frame,0.021658764158901177,-0.008580861950246283,0.6152815315699891,0.7879631359728629,-0.006317180821917231,0.017443759976041945,0.02045517376687973,0.51953125,0.40234375,9.73046875
388,186000000,imu2_frame,0.022251109120138092,-0.008994182075399667,0.6149098790761974,0.7882320936413428,0.00930781917808277,-0.050915615023958055,-0.03618545123312027,0.51953125,0.40234375,9.73046875
388,211000000,imu2_frame,0.022832650393354796,-0.009399308028167897,0.6145414825526441,0.7884979957530678,0.009214740986301942,-0.050406458873718474,-0.03582359672078907,0.51953125,0.40234375,9.73046875
388,236000000,imu2_frame,0.02340237118489148,-0.009796065490359713,0.6141763494223516,0.7887609130364326,0.009122593576438923,-0.04990239428498129,-0.03546536075358117,0.51953125,0.40234375,9.765625
388,261000000,imu2_frame,0.0239738149842941,-0.010200617935082016,0.6138143635517423,0.789020361388989,0.009031367640674533,-0.04940337034213148,-0.03511070714604536,0.55859375,0.40234375,9.765625
388,286000000,imu2_frame,0.024413028900589797,-0.010413020522026242,0.6128983565032247,0.7897158841122248,0.009031367640674533,-0.03182524534213148,-0.09175133214604536,0.55859375,0.40234375,9.765625
388,311000000,imu2_frame,0.02484427969043552,-0.010621413214614383,0.6119905958801408,0.7904033513986756,0.008941053964267788,-0.03150699288871016,-0.09083381882458491,0.55859375,0.40234375,9.765625
388,336000000,imu2_frame,0.0252688946160253,-0.010826222037052156,0.6110909984595511,0.7910828448923651,0.00885164342462511,-0.031191922959823058,-0.08992548063633907,0.55859375,0.40234375,9.73046875
388,361000000,imu2_frame,0.025296298689011662,-0.010778379008494193,0.6114373479604103,0.7908149551808729,-0.0009139815753748896,0.00591745204017694,0.03507451936366094,0.55859375,0.40234375,9.73046875
388,386000000,imu2_frame,0.02520194173355183,-0.010609467871931646,0.611710434587542,0.7906090345683215,-0.0028671065753748896,0.019589327040176942,0.02726201936366094,0.55859375,0.40234375,9.73046875
388,411000000,imu2_frame,0.02509814638362066,-0.010427951321189857,0.6119807738059676,0.7904055119817919,-0.0028384355096211407,0.019393433769775172,0.026989399170024332,0.51953125,0.40234375,9.73046875
388,436000000,imu2_frame,0.024996030749888574,-0.010249458184000275,0.6122483392489975,0.7902038459413683,-0.0028100511545249294,0.01919949943207742,0.02671950517832409,0.51953125,0.40234375,9.765625
388,461000000,imu2_frame,0.025160346281238807,-0.010418837320322286,0.6125819802039736,0.7899377964962047,-0.0028100511545249294,-0.01595675056792258,0.03453200517832409,0.51953125,0.40234375,9.765625
388,486000000,imu2_frame,0.025211072944591663,-0.010519342158980007,0.6129146461939727,0.7896767577448649,-0.00664913814297968,-0.006129214312243355,0.03418668512654085,0.51953125,0.40234375,9.765625
388,511000000,imu2_frame,0.025274971199669524,-0.010633628273153914,0.6132437261749297,0.7894176550392652,-0.006582646761549883,-0.006067922169120921,0.03384481827527544,0.55859375,0.40234375,9.73046875
388,536000000,imu2_frame,0.025414811149521505,-0.010684981521568914,0.6135131907940332,0.7892030684594694,0.0012175547060656157,-0.006007242947429712,0.027705588842522687,0.55859375,0.40234375,9.73046875
388,561000000,imu2_frame,0.02555153192364486,-0.010734795397375707,0.6137798937610415,0.7889905737071997,0.0012053791590049597,-0.005947170517955415,0.02742853295409746,0.55859375,0.40234375,9.765625
388,586000000,imu2_frame,0.025670679882854906,-0.010766981457795173,0.6141207147436644,0.7887210127969015,0.00119332536741491,-0.003954105062775861,0.034888622624556484,0.55859375,0.40234375,9.765625
388,611000000,imu2_frame,0.025801919995629332,-0.010814504516061661,0.6144578864846334,0.7884534311888362,0.001181392113740761,-0.0039145640121481026,0.03453973639831092,0.59765625,0.40234375,9.7265625
388,636000000,imu2_frame,0.025931521807317823,-0.010861038513870332,0.6147915561872469,0.788188388940119,0.0011695781926033535,-0.003875418372026621,0.03419433903432781,0.59765625,0.40234375,9.7265625
388,661000000,imu2_frame,0.026088885824743956,-0.010910464606869653,0.6151210905266637,0.7879253618127633,0.0011578824106773201,-0.003836664188306355,0.03385239564398453,0.63671875,0.44140625,9.69140625
388,686000000,imu2_frame,0.02646016597631994,-0.011184538755047001,0.6152116658212151,0.7878384174098315,0.00311100741067732,-0.029227289188306353,0.010414895643984533,0.63671875,0.44140625,9.69140625
388,711000000,imu2_frame,0.026825226401328596,-0.011453193234940498,0.6153011764446703,0.7877523048897067,0.003079897336570547,-0.02893501629642329,0.010310746687544687,0.63671875,0.44140625,9.69140625
388,736000000,imu2_frame,0.0271670470559274,-0.011728409846731163,0.6153902516234971,0.7876669563740103,0.0030490983632048413,-0.028645666133459056,0.01020763922066924,0.63671875,0.40234375,9.7265625
388,761000000,imu2_frame,0.027318782279606175,-0.011966166562354778,0.6156355664014629,0.7874664084099787,-0.006716526636795159,-0.016926916133459056,0.02583263922066924,0.63671875,0.40234375,9.7265625
388,786000000,imu2_frame,0.027524396708368776,-0.01215630724656142,0.6159172150966374,0.7872360611198969,-0.0008485801204272071,-0.01675764697212447,0.029441500328462548,0.63671875,0.40234375,9.7265625
388,811000000,imu2_frame,0.027726842063096346,-0.012342649593664658,0.6161958971624892,0.7870079399538045,-0.000840094319222935,-0.01659007050240322,0.029147085325177922,0.63671875,0.40234375,9.7265625
388,836000000,imu2_frame,0.02792616194752528,-0.01252524954265838,0.616471646143209,0.7867820264242549,-0.0008316933760307058,-0.01642416979737919,0.028855614471926142,0.63671875,0.40234375,9.7265625
388,861000000,imu2_frame,0.028135959367005147,-0.012881623738021724,0.6167995033774712,0.7865117953302896,-0.008644193376030706,-0.02814291979737919,0.03471498947192614,0.63671875,0.40234375,9.7265625
388,886000000,imu2_frame,0.029861597036312925,-0.014801089255692033,0.6181802455693289,0.7853294829351118,0.012840181623969294,-0.20197104479737918,0.14799623947192614,0.63671875,0.40234375,9.7265625
388,911000000,imu2_frame,0.03169217439186906,-0.016631126297609964,0.6195498353761529,0.784140939631244,0.012840181623969294,-0.20197104479737918,0.14799623947192614,0.67578125,0.671875,9.6875
388,936000000,imu2_frame,0.03190252113421765,-0.017084088481490442,0.6193070906271093,0.7843144079800033,-0.026222318376030705,-0.03790854479737919,-0.021925635528073858,0.67578125,0.671875,9.6875
388,961000000,imu2_frame,0.03202711787194505,-0.017613913597309915,0.6190703905039872,0.784484458335437,-0.0259600951922704,-0.0375294593494054,-0.021706379172793118,0.7109375,0.44140625,9.7265625
388,986000000,imu2_frame,0.03210962617047431,-0.017336923436553107,0.6187287545121044,0.7847567338563255,0.011149279807729602,0.015204915650594602,-0.03537825417279312,0.7109375,0.44140625,9.7265625
389,11000000,imu2_frame,0.03217401460766035,-0.017077051202356607,0.6183911885194334,0.7850258244591581,0.011037787009652305,0.015052866494088655,-0.03502447163106519,0.7109375,0.40234375,9.765625
389,36000000,imu2_frame,0.032215832615611784,-0.016793150850509166,0.6180571977750978,0.7852932130687165,0.010927409139555783,0.01490233782914777,-0.03467422691475454,0.63671875,0.40234375,9.7265625
389,61000000,imu2_frame,0.032267972646523646,-0.016529773462718375,0.6177263149931194,0.7855569643861455,0.010818135048160225,0.01475331445085629,-0.03432748464560699,0.67578125,0.40234375,9.765625
389,86000000,imu2_frame,0.032181674596276695,-0.017165953999119726,0.6182086334975497,0.7851673422351263,-0.039963114951839775,-0.03407481054914371,0.05161001535439301,0.67578125,0.40234375,9.765625
389,111000000,imu2_frame,0.0319882565986157,-0.01703904992934714,0.6182197293941103,0.7851692737271113,-0.010666239951839775,0.01865956445085629,0.0008287653543930101,0.67578125,0.40234375,9.765625
389,136000000,imu2_frame,0.031805480165749266,-0.016887319200845748,0.618230034928925,0.7851718625838645,-0.010559577552321377,0.018472968806347728,0.0008204777008490802,0.63671875,0.44140625,9.69140625
389,161000000,imu2_frame,0.03186480662034825,-0.017138198504023556,0.618493037461282,0.7849568643326854,-0.014465827552321377,-0.018636406193652272,0.02816422770084908,0.63671875,0.44140625,9.69140625
389,186000000,imu2_frame,0.031506019795059646,-0.016528127339185697,0.6179641270410376,0.7854008717933418,-0.0007939525523213775,0.05558234380634773,-0.05582014729915092,0.63671875,0.44140625,9.69140625
389,211000000,imu2_frame,0.03153288676932732,-0.01688642864849537,0.6175134339292376,0.7857465777821837,-0.024231452552321377,-0.024495781193652272,-0.04410139729915092,0.63671875,0.44140625,9.69140625
389,236000000,imu2_frame,0.031679415799911674,-0.017265616480308117,0.6170633048361212,0.7860859946130929,-0.023989138026798165,-0.02425082338171575,-0.04366038332615941,0.828125,0.59375,9.73046875
389,261000000,imu2_frame,0.031182501110548773,-0.016726041575108038,0.6163611099257155,0.7866682104476186,-0.020082888026798165,0.06559292661828425,-0.0729572583261594,0.828125,0.59375,9.73046875
389,286000000,imu2_frame,0.0313031353567575,-0.01678399534193427,0.6169221892879597,0.7862222482106119,-0.006411013026798164,-0.0008133233817157492,0.05790211667384059,0.828125,0.59375,9.73046875
389,311000000,imu2_frame,0.03114648979508777,-0.01644659323707885,0.6162493278740021,0.7867630975326559,-0.008364138026798165,0.03629605161828425,-0.0690510083261594,0.828125,0.59375,9.73046875
389,336000000,imu2_frame,0.031344403260594775,-0.01662962263360906,0.6153632131891557,0.7874446646519481,-0.012270388026798165,-0.014485198381715749,-0.0885822583261594,0.828125,0.59375,9.73046875
389,361000000,imu2_frame,0.03171303668056714,-0.01655199121499297,0.6144757055306305,0.788124306314651,-0.012147684146530183,-0.014340346397898591,-0.08769643574289782,0.63671875,1.16796875,9.6875
389,386000000,imu2_frame,0.0320049270254311,-0.016403613066432635,0.6133204638303428,0.7890149648589669,-0.014100809146530183,-0.006527846397898591,-0.11504018574289782,0.63671875,1.16796875,9.6875
389,411000000,imu2_frame,0.0316783146655397,-0.016513075308205356,0.6131237816990223,0.7891787066557906,-0.06292893414653018,0.009097153602101409,-0.017383935742897816,0.63671875,1.16796875,9.6875
389,436000000,imu2_frame,0.030960738488443433,-0.016901010885141555,0.6129458126541535,0.7893372025015987,-0.06229964480506488,0.009006182066080394,-0.01721009638546884,0.59765625,0.2109375,9.76953125
389,461000000,imu2_frame,0.030207166339145098,-0.01747077614968454,0.6127730584789031,0.7894881113005425,-0.06167664835701423,0.00891612024541959,-0.017037995421614154,0.828125,-0.09375,9.73046875
389,486000000,imu2_frame,0.02998614134616117,-0.017662797727113412,0.6128418610635858,0.7894388578172092,-0.008942273357014231,0.0069629952454195905,0.0063995045783858465,0.828125,-0.09375,9.73046875
389,511000000,imu2_frame,0.02953499173990927,-0.017743403871689885,0.6122010215533868,0.7899511156337203,-0.02066102335701423,0.02454112024541959,-0.06586612042161416,0.828125,-0.09375,9.73046875
389,536000000,imu2_frame,0.029334209252140513,-0.017659510339004834,0.6115561067494673,0.7904598498086873,-0.02045441312344409,0.024295709042965394,-0.06520745921739801,0.8671875,0.48046875,9.76953125
389,561000000,imu2_frame,0.029637355496605525,-0.017625097710766292,0.6113903847402414,0.7905774981221219,0.01079558687655591,-0.0030480409570346053,-0.01637933421739801,0.8671875,0.48046875,9.76953125
389,586000000,imu2_frame,0.02986498392153834,-0.017891029109824808,0.6111951972160481,0.7907138703176984,-0.00873566312344409,-0.018673040957034606,-0.01833245921739801,0.8671875,0.48046875,9.76953125
389,611000000,imu2_frame,0.02990002219440796,-0.017876297619863295,0.6111264103169628,0.7907660445854282,-0.0067825381234440894,0.008670709042965394,-0.006613709217398012,0.8671875,0.48046875,9.76953125
389,636000000,imu2_frame,0.029943520239459814,-0.01770990498928001,0.6110560994763863,0.7908224757514447,-0.006714712742209648,0.00858400195253574,-0.006547572125224034,0.63671875,0.671875,9.73046875
389,661000000,imu2_frame,0.030183232725553212,-0.017662235292016226,0.6106908947281801,0.7910964852676438,-0.0008553377422096481,-0.00899412304746426,-0.035844447125224034,0.63671875,0.671875,9.73046875
389,686000000,imu2_frame,0.03022306673232831,-0.01725229197394064,0.6105132909085451,0.7912410797493753,0.005004037257790352,0.024209001952535742,-0.018266322125224034,0.63671875,0.671875,9.73046875
389,711000000,imu2_frame,0.03037489448068908,-0.017035541882242863,0.6103866273495561,0.7913376783970922,0.003050912257790352,0.00663087695253574,-0.012406947125224034,0.63671875,0.671875,9.73046875
389,736000000,imu2_frame,0.030433756447620336,-0.01699097174738844,0.6102664661521274,0.7914290452325848,0.0030204031352124485,0.0065645681830103835,-0.012282877653971791,0.7890625,0.328125,9.73046875
389,761000000,imu2_frame,0.03056437518001942,-0.01681896888084139,0.6101434184292187,0.791522551923284,0.002990199103860324,0.00649892250118028,-0.012160048877432071,0.67578125,0.59375,9.73046875
389,786000000,imu2_frame,0.030634713332934545,-0.016721756855617834,0.6098827126870211,0.7917227885770316,-0.004822300896139676,0.00454579750118028,-0.02583192387743207,0.67578125,0.59375,9.73046875
389,811000000,imu2_frame,0.03072344940912706,-0.016636723929004348,0.6094085474789703,0.7920861767086247,-0.004822300896139676,0.00259267250118028,-0.04731629887743207,0.67578125,0.59375,9.73046875
389,836000000,imu2_frame,0.030651885056550122,-0.01669877426957168,0.6089460778871619,0.7924432390437921,-0.0047740778871782795,0.002566745776168477,-0.04684313588865775,0.7109375,0.171875,9.7265625
389,861000000,imu2_frame,0.03065196945097811,-0.01665838552730653,0.6084843177893939,0.792798707090757,-0.004726337108306496,0.0025410783184067923,-0.046374704529771174,0.63671875,0.40234375,9.7265625
389,886000000,imu2_frame,0.03045028904737885,-0.01700479915801629,0.6088431607333769,0.7925235784067994,-0.0340232121083065,-0.011130796681593207,0.037609670470228826,0.63671875,0.40234375,9.7265625
389,911000000,imu2_frame,0.03054828000207282,-0.016862057368454947,0.6085974086398409,0.7927115918208139,0.006992412891693504,0.004494203318406793,-0.024890329529771174,0.63671875,0.40234375,9.7265625
389,936000000,imu2_frame,0.030628932539792174,-0.016830246886891328,0.6083561096239899,0.7928943530914841,0.0069224887627765685,0.004449261285222724,-0.024641426234473462,0.7890625,0.25,9.765625
389,961000000,imu2_frame,0.03089088509938813,-0.01696693435357189,0.6082630398612789,0.7929526787237271,0.010828738762776569,-0.015081988714777277,-0.009016426234473462,0.7890625,0.25,9.765625
389,986000000,imu2_frame,0.031246324445613417,-0.017002707607975887,0.6081663125428413,0.7930121760923222,0.010720451375148803,-0.014931168827629503,-0.00892626197212873,0.75,0.51953125,9.73046875
390,11000000,imu2_frame,0.031000388327624723,-0.016910473767936442,0.6077283166641321,0.7933595054734398,-0.022482673624851197,0.0221782061723705,-0.04408251197212873,0.75,0.51953125,9.73046875
390,36000000,imu2_frame,0.030653821813828395,-0.016875130584358442,0.6072985984583121,0.7937027059841341,-0.022257846888602686,0.021956424110646793,-0.04364168685240744,0.7109375,0.2890625,9.765625
390,61000000,imu2_frame,0.030251472337576215,-0.016791377642162486,0.6068741165174271,0.7940445231594258,-0.022035268419716657,0.021736859869540326,-0.04320526998388337,0.55859375,0.25,9.765625
390,86000000,imu2_frame,0.029937321291792635,-0.01695324342146503,0.6066733410439377,0.7942063973539566,-0.027894643419716657,0.002205609869540324,-0.019767769983883368,0.55859375,0.25,9.765625
390,111000000,imu2_frame,0.030021136610134017,-0.017214003660520016,0.6067971569054408,0.7941030284579483,-0.006410268419716658,-0.023185015130459674,0.013435355016116632,0.55859375,0.25,9.765625
390,136000000,imu2_frame,0.03022220417262828,-0.017461782463165543,0.6069169659155061,0.7939984263284616,-0.006410268419716658,-0.023185015130459674,0.013435355016116632,0.67578125,0.44140625,9.65625
390,161000000,imu2_frame,0.030489830846256165,-0.01767011904258573,0.607032723124047,0.793895087630974,-0.006346165735519492,-0.022953164979155078,0.013301001465955468,0.7109375,0.59375,9.73046875
390,186000000,imu2_frame,0.03073522195773694,-0.017821258144826976,0.6067040506017882,0.7941334546993515,-0.006346165735519492,-0.019046914979155078,-0.03162087353404453,0.7109375,0.59375,9.73046875
390,211000000,imu2_frame,0.030793009843504842,-0.01771196539352647,0.6061328736024293,0.7945697051644606,-0.006346165735519492,0.006343710020844921,-0.05701149853404453,0.7109375,0.59375,9.73046875
390,236000000,imu2_frame,0.030796040677561122,-0.01762570088051374,0.6055691911515237,0.795001190738194,-0.006282704078164297,0.0062802729206364715,-0.05644138354870409,0.67578125,0.48046875,9.6875
390,261000000,imu2_frame,0.030836787649189845,-0.017558402418728424,0.6050098726698355,0.7954268344756859,-0.006219877037382654,0.006217470191430107,-0.055876969713217046,0.75,0.51953125,9.73046875
390,286000000,imu2_frame,0.030969730310748407,-0.017398973500117598,0.604822761804617,0.7955674568059313,0.005498872962617346,0.008170595191430107,-0.018767594713217046,0.75,0.51953125,9.73046875
390,311000000,imu2_frame,0.03086647872464211,-0.01717951415467436,0.60475567869027,0.7956272329906898,-0.006219877037382654,0.023795595191430107,-0.0070488447132170465,0.75,0.51953125,9.73046875
390,336000000,imu2_frame,0.030731032977972184,-0.01701634873770749,0.6046911104979809,0.7956850560193162,-0.006157678267008827,0.023557639239515805,-0.006978356266084874,0.7890625,0.40234375,9.73046875
390,361000000,imu2_frame,0.030683540546946914,-0.01660570248260075,0.6045765191205176,0.7957826358451671,0.011420446732991172,0.03527638923951581,-0.012837731266084874,0.7890625,0.40234375,9.73046875
390,386000000,imu2_frame,0.030697573536852926,-0.016183173424813842,0.6044608711295758,0.7958786459945552,0.011306242265661261,0.03492362534712065,-0.012709353953424027,0.828125,0.51953125,9.73046875
390,411000000,imu2_frame,0.030633363297169702,-0.016630321759971946,0.6050934564354895,0.795391060064303,-0.03361563273433874,-0.015857624652879352,0.06541564604657597,0.828125,0.51953125,9.73046875
390,436000000,imu2_frame,0.030532440428712265,-0.0170488768701928,0.6057199563479843,0.7949090767884893,-0.03327947640699535,-0.015699048406350558,0.06476148958611022,0.75,0.48046875,9.7265625
390,461000000,imu2_frame,0.030462566767373026,-0.01746239273072656,0.6063386388777744,0.794430961046905,-0.0329466816429254,-0.015542057922287054,0.06411387469024911,0.7890625,0.51953125,9.73046875
390,486000000,imu2_frame,0.030764830744426173,-0.01741466085832251,0.6059421926574968,0.7947227906219133,0.010022068357074601,-0.005776432922287053,-0.03940175030975089,0.7890625,0.51953125,9.73046875
390,511000000,imu2_frame,0.03088964069099136,-0.017308674213806857,0.6051015111897795,0.7953605478339915,0.0002564433570746019,0.005942317077712947,-0.08432362530975089,0.7890625,0.51953125,9.73046875
390,536000000,imu2_frame,0.03086365066869476,-0.017268756864048277,0.6042743582905914,0.79599103325117,0.0002538789235038559,0.005882893906935818,-0.08348038905665338,0.7109375,0.2109375,9.73046875
390,561000000,imu2_frame,0.030913045697369333,-0.017169978496835242,0.6034515573894774,0.7966152103295198,0.0002513401342688173,0.005824064967866459,-0.08264558516608685,0.7109375,0.40234375,9.8046875
390,586000000,imu2_frame,0.030665548089013894,-0.017137216182154538,0.6022569026341508,0.7975290359676227,-0.023186159865731183,0.01558968996786646,-0.11975496016608685,0.7109375,0.40234375,9.8046875
390,611000000,imu2_frame,0.030375073009219794,-0.017459739081119294,0.6018677964895532,0.7978268408619213,-0.040764284865731186,-0.003941560032133541,-0.037723710166086846,0.7109375,0.40234375,9.8046875
390,636000000,imu2_frame,0.030066416842792845,-0.017870969454261636,0.6014841926842863,0.7981186659763901,-0.04035664201707387,-0.003902144431812205,-0.037346473064425977,0.828125,0.25,9.765625
390,661000000,imu2_frame,0.02979193000538411,-0.018181181430952334,0.6011018088667619,0.7984099829820742,-0.03995307559690313,-0.003863122987494083,-0.03697300833378172,0.7109375,0.40234375,9.73046875
390,686000000,imu2_frame,0.030211572747623476,-0.018844656431524227,0.6007041598221599,0.7986780654108674,-0.012609325596903132,-0.06050374798749408,-0.03697300833378172,0.7109375,0.40234375,9.73046875
390,711000000,imu2_frame,0.029929248348133753,-0.01879213373360003,0.6005875239377776,0.7987776423344258,-0.022374950596903132,0.019574377012505917,-0.01158238333378172,0.7109375,0.40234375,9.73046875
390,736000000,imu2_frame,0.02983258913592662,-0.018584752501097975,0.6004640642879311,0.7988789214259815,-0.0221512010909341,0.019378633242380858,-0.011466559500443903,0.67578125,0.86328125,9.69140625
390,761000000,imu2_frame,0.03008404813525121,-0.01850802809295032,0.6001592817432168,0.7991002687281319,-0.006526201090934101,-0.006011991757619142,-0.029044684500443903,0.67578125,0.86328125,9.69140625
390,786000000,imu2_frame,0.030086263468074317,-0.01866077079975204,0.5998684945442032,0.7993149452105598,-0.00646093908002476,-0.005951871840042951,-0.02875423765543946,0.75,0.2109375,9.765625
390,811000000,imu2_frame,0.029949466650807197,-0.018988310712088525,0.6001578006241655,0.7990951682081415,-0.02208593908002476,-0.009858121840042951,0.02983951234456054,0.75,0.2109375,9.765625
390,836000000,imu2_frame,0.029930836599213587,-0.019199714074551254,0.6004387595686003,0.7988797231170957,-0.021865079689224513,-0.009759540621642521,0.02954111722111493,0.7109375,0.51953125,9.73046875
390,861000000,imu2_frame,0.02992847031697991,-0.019395444314840957,0.6007160594044063,0.7986665883696135,-0.021646428892332266,-0.009661945215426095,0.02924570604890378,0.7109375,0.5546875,9.7265625
390,886000000,imu2_frame,0.030033498037646062,-0.01954151621788164,0.6011508005298772,0.7983319066414775,-0.011880803892332268,-0.011615070215426095,0.04487070604890378,0.7109375,0.5546875,9.7265625
390,911000000,imu2_frame,0.030220824845605763,-0.019659997439482654,0.6019371225502096,0.7977292063992045,-0.004068303892332268,-0.013568195215426095,0.08002695604890378,0.7109375,0.5546875,9.7265625
390,936000000,imu2_frame,0.030406025962032488,-0.01977504006862844,0.6027148960047035,0.7971318432414553,-0.004027620853408945,-0.013432513263271835,0.07922668648841474,0.7109375,0.5546875,9.7265625
390,961000000,imu2_frame,0.030538965227033248,-0.019949624017553784,0.6034867154762015,0.7965382403552052,-0.003987344644874855,-0.013298188130639117,0.0784344196235306,0.75,0.40234375,9.73046875
390,986000000,imu2_frame,0.0308079727010679,-0.020434738332487195,0.6038372836608039,0.7962498509566421,-0.011799844644874855,-0.04064193813063911,0.037418794623530593,0.75,0.40234375,9.73046875
391,11000000,imu2_frame,0.031053072611627854,-0.02018783320705039,0.6033777850179306,0.7965948823703535,0.019450155355125145,0.0062330618693608834,-0.046565580376469407,0.75,0.40234375,9.73046875
391,36000000,imu2_frame,0.031324129477971245,-0.019921055559556512,0.6029213636013678,0.7969364966990203,0.019255653801573895,0.006170731250667275,-0.04609992457270471,0.75,0.48046875,9.76953125
391,61000000,imu2_frame,0.03148657544055608,-0.019715186858123037,0.602473712081032,0.7972736877794709,0.019063097263558156,0.006109023938160602,-0.045638925326977664,0.7109375,0.25,9.73046875
391,86000000,imu2_frame,0.03140806299911322,-0.01963017364699577,0.6019441860319983,0.7976787490986003,-0.0024212777364418453,0.010015273938160603,-0.053451425326977664,0.7109375,0.25,9.73046875
391,111000000,imu2_frame,0.03139323650389011,-0.019500258293911454,0.6014169058441464,0.7980801400818934,-0.002397064959077427,0.009915121198778996,-0.052916911073707884,0.7109375,0.40234375,9.73046875
391,136000000,imu2_frame,0.031354286984486536,-0.01937070202098541,0.6008902022849978,0.7984814646494953,-0.002397064959077427,0.009915121198778996,-0.052916911073707884,0.67578125,0.36328125,9.66015625
391,161000000,imu2_frame,0.031230762531355996,-0.019123093725633714,0.6002702947158126,0.7989583969393289,-0.002397064959077427,0.021633871198778996,-0.06268253607370788,0.67578125,0.36328125,9.66015625
391,186000000,imu2_frame,0.030868292627427713,-0.01898392593821161,0.599665736995791,0.7994296485242056,-0.0023730943094866525,0.021417532486791208,-0.06205571071297081,0.55859375,-0.1328125,9.73046875
391,211000000,imu2_frame,0.030765798167118608,-0.018908046889272532,0.5996635778119678,0.7994370174514833,0.013251905690513347,0.005792532486791206,-0.0015088357129708074,0.55859375,-0.1328125,9.73046875
391,236000000,imu2_frame,0.030955527489068792,-0.018735416851325126,0.5996503276538412,0.7994436965902737,0.013119386633608215,0.005734607161923294,-0.0014937473558410963,0.75,0.44140625,9.76953125
391,261000000,imu2_frame,0.031160234516847286,-0.018554811708496863,0.5996364940593708,0.7994503322530447,0.012988192767272132,0.005677261090304061,-0.001478809882282682,0.75,0.48046875,9.7265625
391,286000000,imu2_frame,0.03129943671399625,-0.01891969426428296,0.5987818604820764,0.8000766675687749,-0.02021493223272787,-0.027525863909695938,-0.08351005988228269,0.75,0.48046875,9.7265625
391,311000000,imu2_frame,0.031440850877250896,-0.019223323904613048,0.5981829800831432,0.800511748229233,-0.01630868223272787,-0.023619613909695938,-0.05811943488228268,0.75,0.48046875,9.7265625
391,336000000,imu2_frame,0.031690272341517084,-0.019438427213371,0.5975846918566754,0.8009434500917986,-0.01614559541040059,-0.02338341777059898,-0.05753824053345986,0.75,0.75,9.73046875
391,361000000,imu2_frame,0.03170599019503822,-0.019698654955068208,0.5970005988436096,0.8013719349709504,-0.015984139456296585,-0.02314958359289299,-0.05696285812812526,0.55859375,0.328125,9.73046875
391,386000000,imu2_frame,0.03181306969883059,-0.0193085827008157,0.5975374330313288,0.8009769805411099,0.025031485543703415,0.01591291640710701,0.05241214187187474,0.55859375,0.328125,9.73046875
391,411000000,imu2_frame,0.03186009011898,-0.01937943611330399,0.5976459411749275,0.8008924404129907,-0.0023122644562965835,-0.01143083359289299,0.011396516871874741,0.55859375,0.328125,9.73046875
391,436000000,imu2_frame,0.03209135362772165,-0.01930850315726228,0.5977449424144688,0.8008110329822448,-0.0022891418117336176,-0.011316525256964059,0.011282551703155994,0.55859375,0.78515625,9.765625
391,461000000,imu2_frame,0.03234743318435081,-0.019337614908724238,0.5978433187944238,0.8007265865380611,-0.0022662503936162815,-0.011203360004394418,0.011169726186124433,0.75,0.7109375,9.765625
391,486000000,imu2_frame,0.03287125315266067,-0.01904484898045899,0.5979920338672109,0.8006012127612858,0.030936874606383717,-0.0033908600043944187,0.015075976186124433,0.75,0.7109375,9.765625
391,511000000,imu2_frame,0.032915910425355605,-0.019055493178908683,0.5970935260374198,0.8012694629054445,-0.017891250393616283,-0.0014377350043944187,-0.08843964881387556,0.75,0.7109375,9.765625
391,536000000,imu2_frame,0.032867270009305456,-0.019135209414035778,0.5962075463951502,0.8019290167741104,-0.01771233788968012,-0.0014233576543504745,-0.08755525232573681,0.75,0.48046875,9.76953125
391,561000000,imu2_frame,0.03299931584780789,-0.01909973096111056,0.5948534783409941,0.8029293771785975,-0.0020873378896801185,-0.0033764826543504745,-0.1344302523257368,0.75,0.48046875,9.76953125
391,586000000,imu2_frame,0.03316948206958038,-0.01905807069752796,0.5935097997353569,0.8039170933738257,-0.0020664645107833176,-0.00334271782780697,-0.13308594980247945,0.7890625,0.5546875,9.80859375
391,611000000,imu2_frame,0.03312706798987457,-0.01896975181200206,0.5937797434511505,0.8037215700413118,-0.007925839510783317,0.01228228217219303,0.027070300197520554,0.7890625,0.5546875,9.80859375
391,636000000,imu2_frame,0.033093131753073546,-0.018855599243989187,0.5940462466122818,0.8035286976168207,-0.007846581115675485,0.0121594593504711,0.026799597195545345,0.75,0.59375,9.765625
391,661000000,imu2_frame,0.03290046939329877,-0.01888686390816728,0.5943177739000295,0.8033350665269932,-0.00776811530451873,0.012037864756966388,0.02653160122358989,0.7890625,0.171875,9.76953125
391,686000000,imu2_frame,0.03316265685046973,-0.01905381624364464,0.5941696506014463,0.8034299076965749,0.013716259695481271,-0.019212135243033612,-0.014484023776410108,0.7890625,0.171875,9.76953125
391,711000000,imu2_frame,0.03313563223243581,-0.019212541754537443,0.5936693093797455,0.8037970261306413,-0.00581499030451873,-0.0055402602430336114,-0.04964027377641011,0.7890625,0.171875,9.76953125
391,736000000,imu2_frame,0.033117381461599385,-0.019313546326985048,0.5931725815330849,0.8041619951793159,-0.005756840401473543,-0.005484857640603275,-0.04914387103864601,0.7109375,0.25,9.765625
391,761000000,imu2_frame,0.03319151229337644,-0.019274577138037142,0.5926752277418714,0.8045264996312735,-0.005699271997458807,-0.0054300090641972425,-0.04865243232825955,0.59765625,0.5546875,9.73046875
391,786000000,imu2_frame,0.033645810534104925,-0.018944188720324717,0.5916953297924484,0.8052364335082198,0.03141010300254119,-0.0054300090641972425,-0.09748055732825955,0.59765625,0.5546875,9.73046875
391,811000000,imu2_frame,0.033687493178892046,-0.019430885843038294,0.5921222624985142,0.8049091996817515,-0.02913677199745881,-0.036680009064197244,0.04509756767174045,0.59765625,0.5546875,9.73046875
391,836000000,imu2_frame,0.033825993036147584,-0.019836858353589507,0.5925398710773705,0.8045861062865748,-0.028845404277484218,-0.03631320897355527,0.04464659199502305,0.59765625,0.78515625,9.6875
391,861000000,imu2_frame,0.03393646117948482,-0.02029877921499683,0.5929547659961589,0.8042642113431597,-0.028556950234709378,-0.035950076883819716,0.04420012607507282,0.67578125,0.671875,9.76953125
391,886000000,imu2_frame,0.034019388335784044,-0.02010009070503977,0.5927270502297616,0.8044335345426832,-0.0012132002347093767,0.007018673116180283,-0.022206123924927178,0.67578125,0.671875,9.76953125
391,911000000,imu2_frame,0.03437503955881169,-0.019888217768602844,0.5927742873411408,0.8043888734415224,0.018318049765290622,-0.004700076883819717,0.005137626075072822,0.67578125,0.671875,9.76953125
391,936000000,imu2_frame,0.03466437585451715,-0.019725766930791613,0.5928239834968863,0.8043438318011099,0.018134869267637715,-0.00465307611498152,0.005086249814322097,0.67578125,0.51953125,9.73046875
391,961000000,imu2_frame,0.03477917792099896,-0.019405610469201064,0.5922316984429518,0.8047828566916878,0.012275494267637717,0.01292504888501848,-0.0593668751856779,0.67578125,0.51953125,9.73046875
391,986000000,imu2_frame,0.03487086291226799,-0.019129547367847603,0.5916464547978808,0.8052158442693202,0.01215273932496134,0.012795798396168295,-0.058773206433821126,0.7109375,0.44140625,9.7265625
392,11000000,imu2_frame,0.03517277761465808,-0.018421531967332438,0.5906831371541211,0.8059261469617499,0.04535586432496134,0.030373923396168297,-0.09783570643382113,0.7109375,0.44140625,9.7265625
392,36000000,imu2_frame,0.03545077010916549,-0.017669108121170007,0.5897281179697844,0.8066298980280149,0.044902305681711725,0.030070184162206613,-0.09685734936948291,0.59765625,0.48046875,9.73046875
392,61000000,imu2_frame,0.035773815052190266,-0.016940294239443574,0.5887800901166108,0.8073235200772788,0.04445328262489461,0.029769482320584545,-0.09588877587578809,0.67578125,0.5546875,9.80859375
392,86000000,imu2_frame,0.03559215277643805,-0.016769871883521557,0.5890769198657976,0.8071185492473666,-0.010234217375105392,0.020003857320584545,0.029111224124211917,0.67578125,0.5546875,9.80859375
392,111000000,imu2_frame,0.035145064099214016,-0.017095114442434778,0.5893560784059814,0.8069275025537208,-0.05124984237510539,0.0004726073205845462,0.029111224124211917,0.67578125,0.5546875,9.80859375
392,136000000,imu2_frame,0.03469515203120178,-0.017424230105310794,0.589632580456093,0.8067379145022614,-0.05073734395135434,0.0004678812473787007,0.028820111882969797,0.67578125,0.51953125,9.765625
392,161000000,imu2_frame,0.03408854531805492,-0.017818816053956906,0.5899128185995245,0.8065502633590166,-0.05022997051184079,0.00046320243490491353,0.0285319107641401,0.59765625,0.171875,9.765625
392,186000000,imu2_frame,0.03398192728931306,-0.01781667172876247,0.5901458909256931,0.8063842894363289,0.0005512794881592066,0.0024163274349049135,0.0226725357641401,0.59765625,0.171875,9.765625
392,211000000,imu2_frame,0.03372406811705645,-0.01770939747248932,0.5901077113164863,0.8064254172058418,-0.005308095511840793,0.016088202434904914,-0.004671214235859901,0.59765625,0.171875,9.765625
392,236000000,imu2_frame,0.03356233050408101,-0.01756338643595857,0.5900659975872761,0.8064658801954171,-0.005255014556722386,0.015927320410555865,-0.0046245020935012995,0.63671875,0.36328125,9.7265625
392,261000000,imu2_frame,0.03336213892217032,-0.017495917981300402,0.5900273176482815,0.8065039522341496,-0.0052024644111551615,0.015768047206450305,-0.0045782570725662886,0.7109375,0.2109375,9.765625
392,286000000,imu2_frame,0.03324666431138073,-0.017881810760354666,0.5901484038073154,0.806411657678493,-0.020827464411155162,-0.017435077793549695,0.012999867927433711,0.7109375,0.2109375,9.765625
392,311000000,imu2_frame,0.03351444049621001,-0.018277182526382562,0.5900105967112337,0.8064925434531786,0.0026100355888448385,-0.03696632779354969,-0.012390757072566289,0.7109375,0.2109375,9.765625
392,336000000,imu2_frame,0.0338871173090296,-0.01858392622009095,0.5898689121164447,0.8065735970668098,0.00258393523295639,-0.0365966645156142,-0.012266849501840628,0.7109375,0.48046875,9.76953125
392,361000000,imu2_frame,0.03389054631840479,-0.018819527279568215,0.5894751077088037,0.8068558444077282,-0.01890043976704361,-0.015112289515614198,-0.03765747450184063,0.7109375,0.48046875,9.76953125
392,386000000,imu2_frame,0.03391786897092768,-0.01891403102040007,0.5890819587892782,0.8071395687389001,-0.018711435369373173,-0.014961166620458054,-0.03728089975682222,0.51953125,0.671875,9.7265625
392,411000000,imu2_frame,0.03388325555368522,-0.0188443294655812,0.588734816013487,0.8073958958612819,-0.014805185369373173,-0.0012892916204580553,-0.03337464975682222,0.51953125,0.671875,9.7265625
392,436000000,imu2_frame,0.03386298340035474,-0.018862145875450348,0.5883919673744892,0.8076462161970294,-0.014657133515679443,-0.0012763987042534748,-0.033040903259254,0.67578125,0.59375,9.765625
392,461000000,imu2_frame,0.03375815152593106,-0.018892368554320936,0.5880556350048227,0.8078948172596694,-0.014510562180522647,-0.00126363471721094,-0.03271049422666146,0.59765625,0.44140625,9.765625
392,486000000,imu2_frame,0.03369480294866387,-0.01894181197007707,0.5877214592840949,0.8081394398929649,-0.014365456558717422,-0.0012509983700388304,-0.032383389284394846,0.67578125,0.48046875,9.76953125
392,511000000,imu2_frame,0.03410825806801129,-0.018916621999963128,0.5875263327526166,0.8082645584621029,0.02079079344128258,-0.01882912337003883,-0.018711514284394846,0.67578125,0.48046875,9.76953125
392,536000000,imu2_frame,0.03445403281612634,-0.018938588976179456,0.5873360440470692,0.8083876674179511,0.020582885506869753,-0.018640832136338444,-0.0185243991415509,0.67578125,0.328125,9.69140625
392,561000000,imu2_frame,0.03488281454280363,-0.01891689770738928,0.5871437150097075,0.8085094916915323,0.020377056651801055,-0.018454423814975057,-0.018339155150135393,0.7109375,0.51953125,9.69140625
392,586000000,imu2_frame,0.03458585181639072,-0.01897219044174547,0.5869716602774063,0.8086458711173651,-0.030404193348198945,0.010842451185024943,-0.016386030150135393,0.7109375,0.51953125,9.69140625
392,611000000,imu2_frame,0.034579983581865474,-0.018823268886288203,0.5870237122300519,0.8086118169823897,-0.0011073183481989444,0.010842451185024943,0.005098344849864607,0.7109375,0.51953125,9.69140625
392,636000000,imu2_frame,0.03454127122062569,-0.018699793405531517,0.5870768226696665,0.8085777777017759,-0.001096245164716955,0.010734026673174694,0.0050473614013659615,0.7109375,0.44140625,9.7265625
392,661000000,imu2_frame,0.034483101334892546,-0.01861809018029378,0.5871307907855866,0.8085429592494501,-0.0010852827130697854,0.010626686406442945,0.0049968877873523,0.75,0.36328125,9.73046875
392,686000000,imu2_frame,0.03431589976037424,-0.019075516585784727,0.5875988022279848,0.8081993512190289,-0.032335282713069784,-0.018670188593557055,0.0479656377873523,0.75,0.36328125,9.73046875
392,711000000,imu2_frame,0.03440301717653787,-0.01916248926110529,0.586755509246062,0.8088060359467301,-0.0030384077130697854,-0.008904563593557055,-0.0828937372126477,0.75,0.36328125,9.73046875
392,736000000,imu2_frame,0.03452546689185069,-0.01919688243054044,0.5859178559080391,0.809407028613524,-0.0030080236359390877,-0.008815517957621484,-0.08206479984052123,0.7109375,0.48046875,9.7265625
392,761000000,imu2_frame,0.03504248725507553,-0.019101520721968423,0.5853998124219215,0.809761826470886,0.030195101364060912,-0.018581142957621484,-0.05081479984052122,0.7109375,0.48046875,9.7265625
392,786000000,imu2_frame,0.035545059422632974,-0.018938316923969585,0.5848856598313896,0.8101152102178607,0.029893150350420304,-0.018395331528045268,-0.05030665184211601,0.59765625,0.5546875,9.765625
392,811000000,imu2_frame,0.035656969428414266,-0.018674817576387674,0.5846350912820707,0.8102972551855736,0.010361900350420304,0.006995293471954732,-0.02491602684211601,0.59765625,0.5546875,9.765625
392,836000000,imu2_frame,0.035754172613385475,-0.01842646498132408,0.5843876454006305,0.8104771338120104,0.010258281346916101,0.006925340537235184,-0.02466686657369485,0.59765625,0.51953125,9.7265625
392,861000000,imu2_frame,0.03572760615122364,-0.018317845525326372,0.5841494984300302,0.8106524274792234,0.010155698533446939,0.006856087131862832,-0.0244201979079579,0.67578125,0.171875,9.76953125
392,886000000,imu2_frame,0.035848080754992434,-0.018010158061962003,0.5839047242925655,0.8108303288984631,0.01005414154811247,0.006787526260544204,-0.02417599592887832,0.51953125,0.6328125,9.69140625
392,911000000,imu2_frame,0.036014348885651234,-0.01782545903399908,0.5838333018279719,0.8108784713884185,0.00810101654811247,-0.0029780987394557963,-0.00659787092887832,0.51953125,0.6328125,9.69140625
392,936000000,imu2_frame,0.036188571666349915,-0.017730587805956877,0.583763859756584,0.8109227889132851,0.008020006382631345,-0.002948317752061238,-0.0065318922195895385,0.67578125,0.5546875,9.76953125
392,961000000,imu2_frame,0.03634308585195651,-0.017577145851844247,0.5836945768989373,0.8109690900109763,0.007939806318805032,-0.002918834574540626,-0.006466573297393641,0.55859375,0.59375,9.73046875
392,986000000,imu2_frame,0.035941609275613906,-0.018063500832946375,0.5836428433769194,0.811013527652432,-0.05846644368119497,-0.018543834574540626,-0.0025603232973936407,0.55859375,0.59375,9.73046875
393,11000000,imu2_frame,0.03577099973446416,-0.01750793360990792,0.5832344833118844,0.8113269657262892,0.004033556318805032,0.038096790425459374,-0.04162282329739364,0.55859375,0.59375,9.73046875
393,36000000,imu2_frame,0.03552884526995444,-0.017090394297387172,0.5828349929960055,0.8116335321534528,0.003993220755616981,0.037715822521204784,-0.041206595064419704,0.67578125,0.328125,9.73046875
393,61000000,imu2_frame,0.035316287079863756,-0.016685547232491348,0.582438435248978,0.8119358481586875,0.003953288548060811,0.03733866429599273,-0.040794529113775506,0.7109375,0.36328125,9.73046875
393,86000000,imu2_frame,0.035244838818555814,-0.016544661943819972,0.5800230217097325,0.8136690787934183,-0.005812336451939189,0.009994914295992733,-0.2380601541137755,0.7109375,0.36328125,9.73046875
393,111000000,imu2_frame,0.03496323830905254,-0.016603141833111013,0.5792696720659595,0.814216528125541,-0.02339046145193919,0.009994914295992733,-0.07399765411377551,0.7109375,0.36328125,9.73046875
393,136000000,imu2_frame,0.03477113871411447,-0.016577659823754018,0.5785188256218436,0.81475893214399,-0.023156556837419795,0.009894965153032806,-0.07325767757263775,0.67578125,0.59375,9.765625
393,161000000,imu2_frame,0.0347016948511508,-0.01658255581869603,0.5787418493637984,0.8146033900076454,-0.013390931837419797,0.0040355901530328055,0.02244544742736225,0.67578125,0.59375,9.765625
393,186000000,imu2_frame,0.03446423004325225,-0.016683573812106885,0.578970054592913,0.8144492317493222,-0.013257022519045598,0.003995234251502477,0.02222099295308863,0.63671875,0.2109375,9.76953125
393,211000000,imu2_frame,0.033978194849094,-0.01654161054743652,0.5790096995193197,0.8144443659685056,-0.0191163975190456,0.03133898425150248,0.0026897429530886308,0.63671875,0.2109375,9.76953125
393,236000000,imu2_frame,0.03406689389796174,-0.016617700425474148,0.5790176153819759,0.8144334839936804,0.008227352480954402,-0.009676640748497523,0.0007366179530886308,0.63671875,0.2109375,9.76953125
393,261000000,imu2_frame,0.03428760959384755,-0.016575446930037017,0.5790188671356357,0.8144241928432472,0.008145078956144858,-0.009579874341012547,0.0007292517735577458,0.59765625,0.5546875,9.69140625
393,286000000,imu2_frame,0.03437720350105967,-0.016591350379982044,0.5788594432341092,0.8145334124213153,-0.0035736710438551422,-0.007626749341012548,-0.014895748226442254,0.59765625,0.5546875,9.69140625
393,311000000,imu2_frame,0.034378127676374506,-0.016404450900881624,0.5787680543500278,0.8146020977090537,0.0003325789561448578,0.009951375658987453,-0.009036373226442254,0.59765625,0.5546875,9.69140625
393,336000000,imu2_frame,0.03441071825941413,-0.01619707204729923,0.5786761041265645,0.8146701932922717,0.00032925316658340923,0.009851861902397578,-0.008946009494177828,0.59765625,0.6328125,9.7265625
393,361000000,imu2_frame,0.03442245083812246,-0.016032249994406316,0.5785865067992222,0.81473659300923,0.00032596063491757525,0.009753343283373602,-0.008856549399236052,0.63671875,0.5546875,9.73046875
393,386000000,imu2_frame,0.03448638789350784,-0.01586440075218791,0.5785568380302575,0.8147582432889298,0.0041898885285684,0.007722216100539866,-0.0029672026552436948,0.63671875,0.5546875,9.73046875
393,411000000,imu2_frame,0.03454863169945394,-0.015586568873182733,0.578750549512258,0.8146233806844219,0.0100492635285684,0.015534716100539867,0.018517172344756305,0.63671875,0.5546875,9.73046875
393,436000000,imu2_frame,0.03456665789725978,-0.0153189729168471,0.5789438380054897,0.8144903361403745,0.009948770893282716,0.015379368939534468,0.01833200062130874,0.59765625,0.48046875,9.765625
393,461000000,imu2_frame,0.034586026217618915,-0.015056535301354684,0.5791351321533633,0.8143584015904175,0.009849283184349888,0.015225575250139123,0.018148680615095655,0.59765625,0.48046875,9.73046875
393,486000000,imu2_frame,0.0346151214694503,-0.014940262658370196,0.5793782434943027,0.8141863625011234,0.00395000910250639,0.005405350747637732,0.0237679750589447,0.59765625,0.48046875,9.73046875
393,511000000,imu2_frame,0.034666809926108856,-0.014783149985567932,0.5797620171441961,0.8139138002534078,0.00785625910250639,0.007358475747637732,0.0374398500589447,0.59765625,0.48046875,9.73046875
393,536000000,imu2_frame,0.03474580235254546,-0.014633287740325074,0.5801410332947957,0.8136430283585263,0.007777696511481326,0.007284890990161354,0.03706545155835525,0.63671875,0.51953125,9.7265625
393,561000000,imu2_frame,0.03482945948334745,-0.014452538665890337,0.5805173504501359,0.8133742304158419,0.009633513296366513,0.00914563583025974,0.0366947970427717,0.63671875,0.51953125,9.7265625
393,586000000,imu2_frame,0.034884133269389384,-0.014270209969812592,0.5808906018740521,0.8131085825447071,0.009537178163402847,0.009054179471957143,0.03632784907234398,0.59765625,0.48046875,9.73046875
393,611000000,imu2_frame,0.03495340183016686,-0.014199909234379278,0.5813345242707636,0.8127895134468206,0.005574618881768819,0.0012292626772375719,0.04369894558162054,0.59765625,0.48046875,9.73046875
393,636000000,imu2_frame,0.03501020299888848,-0.014114236188659573,0.5817738797857978,0.8124741391710677,0.005518872692951131,0.0012169700504651962,0.043261956125804336,0.55859375,0.48046875,9.7265625
393,661000000,imu2_frame,0.0351055312741996,-0.01405039967087322,0.5822078443917278,0.8121602144107913,0.005463683966021619,0.0012048003499605443,0.042829336564546294,0.63671875,0.51953125,9.7265625
393,686000000,imu2_frame,0.03518798074537413,-0.0139711005365986,0.5826373488411608,0.8118499455541048,0.005409047126361403,0.0011927523464609388,0.04240104319890083,0.59765625,0.51953125,9.7265625
393,711000000,imu2_frame,0.035217156606124386,-0.013899523037498833,0.5830233319560546,0.8115727629330409,0.0014877691550977893,0.003114418572996329,0.03810984526691182,0.59765625,0.51953125,9.7265625
393,736000000,imu2_frame,0.03524623949962476,-0.013828745697466272,0.5834053194799836,0.8112981582599755,0.0014728914635468114,0.003083274387266366,0.0377287468142427,0.59765625,0.51953125,9.7265625
393,761000000,imu2_frame,0.03525887842286903,-0.013770406539072763,0.5837841139013898,0.8110260758770209,0.0014581625489113433,0.0030524416433937024,0.03735145934610028,0.59765625,0.48046875,9.73046875
393,786000000,imu2_frame,0.03519297668241256,-0.013771114214981133,0.584216408363755,0.810717582764839,-0.00629079407657777,0.003021917226959765,0.042778726002639274,0.59765625,0.48046875,9.73046875
393,811000000,imu2_frame,0.03520945484501732,-0.013801527115441985,0.5846423073460407,0.8104092698136518,-0.0023606986358119925,-0.002809083195309832,0.04235093874261288,0.59765625,0.48046875,9.73046875
393,836000000,imu2_frame,0.0352422675202891,-0.013819139738500187,0.5850630027777033,0.8101038802139225,-0.0023370916494538725,-0.002780992363356734,0.04192742935518675,0.59765625,0.51953125,9.7265625
393,861000000,imu2_frame,0.03527491851308411,-0.013835760924440586,0.5854793081028247,0.8098013531891477,-0.002313720732959334,-0.0027531824397231666,0.04150815506163488,0.59765625,0.51953125,9.7265625
393,886000000,imu2_frame,0.035309831045930766,-0.013731033480075214,0.5858761439302811,0.8095145573270819,0.0035101977243702596,0.005008724384674065,0.03915947976101854,0.59765625,0.51953125,9.7265625
393,911000000,imu2_frame,0.03531445793945098,-0.013708562777959808,0.5862661475018632,0.8092323329306171,-0.002325685502873443,0.0010914496408273246,0.03876788496340835,0.59765625,0.51953125,9.7265625
393,936000000,imu2_frame,0.03531947396403671,-0.013685916489050215,0.5866520951221103,0.8089527487669457,-0.002302428647844709,0.0010805351444190512,0.03838020611377427,0.59765625,0.51953125,9.7265625
393,961000000,imu2_frame,0.035394444029169546,-0.013264411379965391,0.5863994368634395,0.8091396598664845,0.019181946352155293,0.02256491014441905,-0.026072918886225732,0.59765625,0.51953125,9.7265625
393,986000000,imu2_frame,0.035456456135269716,-0.012834761306270833,0.5861492857959905,0.8093251036396863,0.01899012688863374,0.022339261042974862,-0.025812189697363472,0.55859375,0.51953125,9.73046875
394,11000000,imu2_frame,0.03552143394806998,-0.01249770743191378,0.5858592561553085,0.8095375019209227,0.0149330381197474,0.016315087182545113,-0.02942125530038984,0.55859375,0.51953125,9.73046875
394,36000000,imu2_frame,0.035611558802294246,-0.012172639152996148,0.5855713875418612,0.8097467467227152,0.014783707738549926,0.01615193631071966,-0.029127042747385937,0.59765625,0.5546875,9.73046875
394,61000000,imu2_frame,0.03567417288849955,-0.011848097483666368,0.5852870353139937,0.8099543581388368,0.014635870661164428,0.015990416947612465,-0.02883577231991208,0.55859375,0.51953125,9.73046875
394,86000000,imu2_frame,0.035735761753259404,-0.011529707947834212,0.5850054787206372,0.8101596207127273,0.014489511954552784,0.015830512778136338,-0.028547414596712957,0.55859375,0.51953125,9.73046875
394,111000000,imu2_frame,0.03574890402669473,-0.011480577242662672,0.5854079956347643,0.8098689343677491,0.0008176369545527834,0.00215863777813634,0.03981196040328704,0.55859375,0.51953125,9.73046875
394,136000000,imu2_frame,0.03578830283656955,-0.011437499563791722,0.5858056690153601,0.8095801993213968,0.0008094605850072557,0.0021370514003549762,0.039413840799254175,0.59765625,0.5546875,9.73046875
394,161000000,imu2_frame,0.03580127298592391,-0.011389145229098514,0.5861998856387576,0.8092949093505072,0.0008013659791571831,0.0021156808863514267,0.03901970239126163,0.55859375,0.51953125,9.73046875
394,186000000,imu2_frame,0.03589428498395036,-0.011373779538686039,0.5866466411186804,0.8089672155957042,0.004660539819365611,-0.0037062571725120876,0.04443028661734901,0.55859375,0.51953125,9.73046875
394,211000000,imu2_frame,0.035938584265693005,-0.011332610290635906,0.5870706600532248,0.8086581664768182,0.002680340671171955,0.00019799289921303313,0.04205239000117552,0.55859375,0.51953125,9.73046875
394,236000000,imu2_frame,0.03599697624195495,-0.011281135263444571,0.5874895938829404,0.8083519844522321,0.0026535372644602355,0.0001960129702209028,0.04163186610116376,0.55859375,0.5546875,9.7265625
394,261000000,imu2_frame,0.03603996417870582,-0.01124057600343429,0.5879048608791849,0.8080486649872858,0.002627001891815633,0.00019405284051869377,0.04121554744015212,0.55859375,0.51953125,9.73046875
394,286000000,imu2_frame,0.03604571191130705,-0.011107998576280012,0.5883000596043941,0.8077625634367458,0.004534325622897477,0.007926487312113506,0.0388697982157506,0.55859375,0.51953125,9.73046875
394,311000000,imu2_frame,0.03605546323504412,-0.011062805724626283,0.5886684910908068,0.807494288213408,0.0006217948666685021,0.0020464411889923716,0.0365475064835931,0.55859375,0.51953125,9.73046875
394,336000000,imu2_frame,0.03607995764732168,-0.011007403013664851,0.5890324274403896,0.8072285135937312,0.0006155769180018171,0.002025976777102448,0.036182031418757164,0.55859375,0.5546875,9.7265625
394,361000000,imu2_frame,0.03612317583491007,-0.010940088364463245,0.5894318786508912,0.8069358655210829,0.002543014898821799,0.0020057170093314234,0.039687398604569595,0.55859375,0.5546875,9.7265625
394,386000000,imu2_frame,0.0361675528904373,-0.010873729523726425,0.5898271476514951,0.8066458987792994,0.002517584749833581,0.0019856598392381094,0.0392905246185239,0.55859375,0.5546875,9.6875
394,411000000,imu2_frame,0.03620680710058913,-0.010839766379338877,0.590178196970653,0.8063877866168927,0.000558815152335245,3.220949084572825e-05,0.03503043187233866,0.55859375,0.5546875,9.6875
394,436000000,imu2_frame,0.03624410258447863,-0.010805618003919708,0.590525657619134,0.8061321550098896,0.0005532270008118926,3.188739593727097e-05,0.03468012755361528,0.55859375,0.5546875,9.7265625
394,461000000,imu2_frame,0.036281058368184745,-0.010771542122180504,0.5908695253354451,0.8058789380011494,0.0005476947308037738,3.1568521977898255e-05,0.034333326278079127,0.55859375,0.5546875,9.7265625
394,486000000,imu2_frame,0.03630304538825866,-0.010748163342258572,0.5912105234765979,0.8056281293567358,0.0005422177834957361,3.1252836758119274e-05,0.033989993015298335,0.55859375,0.51953125,9.73046875
394,511000000,imu2_frame,0.03638996623642273,-0.010526601580910507,0.5915380761977242,0.805386655852184,0.014214092783495736,0.00979687783675812,0.032036868015298335,0.55859375,0.51953125,9.73046875
394,536000000,imu2_frame,0.0364916189483251,-0.01029859144864902,0.591861556983828,0.8051473145489483,0.01407195185566078,0.009698909058390538,0.03171649933514535,0.55859375,0.5546875,9.6875
394,561000000,imu2_frame,0.036590037482795726,-0.010074314101162635,0.592181778200217,0.804910193077481,0.013931232337104171,0.009601919967806632,0.0313993343417939,0.55859375,0.5546875,9.7265625
394,586000000,imu2_frame,0.03664282702085578,-0.01003353609811871,0.5924566774761808,0.8047059815206871,0.002212482337104171,-0.00016370503219336732,0.0274930843417939,0.55859375,0.5546875,9.7265625
394,611000000,imu2_frame,0.03670799009337543,-0.010017743853947431,0.5928484659421125,0.8044146099502827,0.002212482337104171,-0.0021168300321933674,0.0392118343417939,0.55859375,0.5546875,9.7265625
394,636000000,imu2_frame,0.036772214484352674,-0.010001703190550847,0.5932361896441701,0.8041259810947979,0.0021903575137331294,-0.0020956617318714336,0.03881971599837596,0.55859375,0.5546875,9.7265625
394,661000000,imu2_frame,0.03683551234811615,-0.009985420244132475,0.5936198920573993,0.8038400712619157,0.0021684539385957977,-0.0020747051145527193,0.0384315188383922,0.55859375,0.5546875,9.7265625
394,686000000,imu2_frame,0.03687889905326813,-0.009982234228251423,0.5939799451936777,0.8035721041152105,0.00021317564920983993,-0.002053958063407192,0.03611360990000828,0.55859375,0.5546875,9.7265625
394,711000000,imu2_frame,0.036887249426809175,-0.01009397316657156,0.5943520006169687,0.8032951773153153,-0.007523331107282259,-0.00783419973277312,0.0376860675510082,0.55859375,0.5546875,9.7265625
394,736000000,imu2_frame,0.036895772799345125,-0.0102029209853763,0.5947201483464429,0.8030208885849048,-0.007448097796209436,-0.007755857735445389,0.037309206875498116,0.55859375,0.5546875,9.7265625
394,761000000,imu2_frame,0.036927219405126346,-0.01026774184739965,0.5952071283437886,0.8026577279968726,-0.003541847796209436,-0.005802732735445389,0.049027956875498116,0.55859375,0.5546875,9.7265625
394,786000000,imu2_frame,0.03697009025597131,-0.010346650125762734,0.5956890025852015,0.8022971840014697,-0.0035064293182473414,-0.005744705408090935,0.04853767730674313,0.59765625,0.5546875,9.73046875
394,811000000,imu2_frame,0.036995513992966585,-0.01031199581959806,0.5960377208007586,0.8020374243570245,0.0003998206817526585,0.0020677945919090647,0.03486580230674313,0.59765625,0.5546875,9.73046875
394,836000000,imu2_frame,0.03700916066063961,-0.010261590473535432,0.5963828107160136,0.8017808708560064,0.0003958224749351319,0.002047116645989974,0.0345171442836757,0.55859375,0.5546875,9.7265625
394,861000000,imu2_frame,0.037008305777275964,-0.01022232697592648,0.5967250272620496,0.8015267501298999,0.0003918642501857806,0.0020266454795300746,0.03417197284083894,0.55859375,0.51953125,9.73046875
394,886000000,imu2_frame,0.03702220356528055,-0.010172641442190364,0.5970630121818735,0.8012750047852283,0.00038794560768392277,0.0020063790247347737,0.033830253112430556,0.55859375,0.5546875,9.7265625
394,911000000,imu2_frame,0.037040422077518335,-0.010210339959927137,0.5974136678984526,0.8010122754979099,-0.0034831213483929166,-0.003814466015512574,0.03542554433130625,0.55859375,0.5546875,9.7265625
394,936000000,imu2_frame,0.037058603648942014,-0.010246701732152906,0.5977606724269355,0.8007520487010327,-0.0034482901349089873,-0.0037763213553574483,0.035071288887993185,0.55859375,0.5546875,9.7265625
