timestamp_sec,timestamp_nsec,frame_id,orientation_x,orientation_y,orientation_z,orientation_w,angular_velocity_x,angular_velocity_y,angular_velocity_z,linear_acceleration_x,linear_acceleration_y,linear_acceleration_z
19,413000000,imu1_frame,-0.00140380859375,-0.02996826171875,0.01007080078125,0.99951171875,-0.001953125,-0.00390625,0.001953125,0.57421875,-0.0390625,9.7265625
19,438000000,imu1_frame,-0.00140380859375,-0.02996826171875,0.01007080078125,0.99951171875,-0.001953125,-0.00390625,0.001953125,0.57421875,-0.0390625,9.7265625
19,463000000,imu1_frame,-0.00140380859375,-0.02996826171875,0.01007080078125,0.99951171875,0.0,0.0,0.0,0.57421875,-0.0390625,9.7265625
19,488000000,imu1_frame,-0.00140380859375,-0.02996826171875,0.01007080078125,0.99951171875,0.0,0.0,0.0,0.57421875,-0.0390625,9.7265625
19,513000000,imu1_frame,-0.00140380859375,-0.02996826171875,0.01007080078125,0.99951171875,0.0,0.0,0.0,0.61328125,-0.0390625,9.73046875
19,538000000,imu1_frame,-0.00140380859375,-0.02996826171875,0.01007080078125,0.99951171875,0.0,-0.00390625,0.001953125,0.61328125,-0.0390625,9.73046875
19,563000000,imu1_frame,-0.00140380859375,-0.02996826171875,0.01007080078125,0.99951171875,-0.001953125,0.0,0.0,0.61328125,-0.0390625,9.73046875
19,588000000,imu1_frame,-0.00140380859375,-0.02996826171875,0.01007080078125,0.99951171875,0.0,0.00390625,0.0,0.61328125,-0.0390625,9.73046875
19,613000000,imu1_frame,-0.00140380859375,-0.02996826171875,0.01007080078125,0.99951171875,0.0,0.00390625,0.0,0.57421875,-0.0390625,9.7265625
19,638000000,imu1_frame,-0.00140380859375,-0.02996826171875,0.01007080078125,0.99951171875,0.00390625,0.0,0.001953125,0.57421875,-0.0390625,9.7265625
19,663000000,imu1_frame,-0.00140380859375,-0.02996826171875,0.01007080078125,0.99951171875,0.00390625,0.0,0.001953125,0.57421875,-0.0390625,9.7265625
19,688000000,imu1_frame,-0.00140380859375,-0.02996826171875,0.01007080078125,0.99951171875,0.00390625,0.001953125,0.001953125,0.57421875,-0.0390625,9.7265625
19,713000000,imu1_frame,-0.00140380859375,-0.02996826171875,0.01007080078125,0.99951171875,0.00390625,0.001953125,0.001953125,0.57421875,-0.0390625,9.7265625
19,738000000,imu1_frame,-0.00140380859375,-0.02996826171875,0.01007080078125,0.99951171875,0.00390625,0.001953125,0.001953125,0.57421875,-0.0390625,9.6875
19,763000000,imu1_frame,-0.00140380859375,-0.02996826171875,0.01007080078125,0.99951171875,0.0,0.0,0.00390625,0.57421875,-0.0390625,9.6875
19,788000000,imu1_frame,-0.00140380859375,-0.02996826171875,0.01007080078125,0.99951171875,0.0,-0.00390625,0.001953125,0.57421875,-0.0390625,9.6875
19,813000000,imu1_frame,-0.00140380859375,-0.02996826171875,0.01007080078125,0.99951171875,0.0,-0.00390625,0.001953125,0.57421875,-0.0390625,9.7265625
19,838000000,imu1_frame,-0.00140380859375,-0.02996826171875,0.01007080078125,0.99951171875,0.0,-0.00390625,0.001953125,0.57421875,-0.0390625,9.7265625
19,863000000,imu1_frame,-0.00140380859375,-0.02996826171875,0.01007080078125,0.99951171875,-0.00390625,-0.0078125,-0.001953125,0.57421875,-0.0390625,9.7265625
19,888000000,imu1_frame,-0.00140380859375,-0.02996826171875,0.01007080078125,0.99951171875,0.0,-0.00390625,-0.001953125,0.57421875,-0.0390625,9.7265625
19,913000000,imu1_frame,-0.00140380859375,-0.02996826171875,0.01007080078125,0.99951171875,0.0,-0.00390625,-0.001953125,0.57421875,-0.0390625,9.7265625
19,938000000,imu1_frame,-0.00140380859375,-0.02996826171875,0.01007080078125,0.99951171875,0.001953125,-0.001953125,0.001953125,0.57421875,-0.0390625,9.7265625
19,963000000,imu1_frame,-0.00140380859375,-0.02996826171875,0.01007080078125,0.99951171875,0.001953125,-0.001953125,0.001953125,0.61328125,-0.0390625,9.73046875
19,988000000,imu1_frame,-0.00140380859375,-0.02996826171875,0.01007080078125,0.99951171875,0.0,0.0,-0.001953125,0.61328125,-0.0390625,9.73046875
20,13000000,imu1_frame,-0.00140380859375,-0.02996826171875,0.01007080078125,0.99951171875,0.0,0.0,-0.001953125,0.57421875,-0.0390625,9.7265625
20,38000000,imu1_frame,-0.00140380859375,-0.02996826171875,0.01007080078125,0.99951171875,0.0,0.0,-0.001953125,0.57421875,0.0,9.7265625
20,63000000,imu1_frame,-0.00140380859375,-0.02996826171875,0.01007080078125,0.99951171875,-0.00390625,-0.009765625,0.0,0.57421875,0.0,9.7265625
20,88000000,imu1_frame,-0.00140380859375,-0.02996826171875,0.01007080078125,0.99951171875,-0.00390625,-0.005859375,-0.001953125,0.57421875,0.0,9.7265625
20,113000000,imu1_frame,-0.00140380859375,-0.02996826171875,0.01007080078125,0.99951171875,-0.00390625,-0.005859375,-0.001953125,0.61328125,0.0,9.73046875
20,138000000,imu1_frame,-0.00140380859375,-0.02996826171875,0.01007080078125,0.99951171875,-0.00390625,-0.005859375,-0.001953125,0.61328125,-0.0390625,9.73046875
20,163000000,imu1_frame,-0.00140380859375,-0.02996826171875,0.01007080078125,0.99951171875,-0.00390625,-0.017578125,0.00390625,0.61328125,-0.0390625,9.73046875
20,188000000,imu1_frame,-0.00140380859375,-0.02996826171875,0.01007080078125,0.99951171875,-0.005859375,-0.015625,0.001953125,0.61328125,-0.0390625,9.73046875
20,213000000,imu1_frame,-0.00140380859375,-0.02996826171875,0.01007080078125,0.99951171875,-0.005859375,-0.015625,0.001953125,0.61328125,-0.0390625,9.73046875
20,238000000,imu1_frame,-0.00140380859375,-0.02996826171875,0.01007080078125,0.99951171875,-0.001953125,-0.009765625,0.0,0.61328125,-0.0390625,9.73046875
20,263000000,imu1_frame,-0.00140380859375,-0.02996826171875,0.01007080078125,0.99951171875,-0.001953125,-0.009765625,0.0,0.61328125,-0.078125,9.765625
20,288000000,imu1_frame,-0.00140380859375,-0.02996826171875,0.01007080078125,0.99951171875,-0.001953125,-0.00390625,0.00390625,0.61328125,-0.078125,9.765625
20,313000000,imu1_frame,-0.00140380859375,-0.02996826171875,0.01007080078125,0.99951171875,-0.001953125,-0.00390625,0.00390625,0.61328125,-0.078125,9.73046875
20,338000000,imu1_frame,-0.00140380859375,-0.02996826171875,0.01007080078125,0.99951171875,-0.001953125,-0.00390625,0.00390625,0.61328125,-0.078125,9.73046875
20,363000000,imu1_frame,-0.00140380859375,-0.02996826171875,0.01007080078125,0.99951171875,0.0,0.001953125,-0.001953125,0.61328125,-0.078125,9.73046875
20,388000000,imu1_frame,-0.00140380859375,-0.02996826171875,0.01007080078125,0.99951171875,-0.001953125,-0.001953125,-0.001953125,0.61328125,-0.078125,9.73046875
20,413000000,imu1_frame,-0.00140380859375,-0.02996826171875,0.01007080078125,0.99951171875,-0.001953125,-0.001953125,-0.001953125,0.61328125,-0.0390625,9.73046875
20,438000000,imu1_frame,-0.00140380859375,-0.02996826171875,0.01007080078125,0.99951171875,-0.001953125,-0.001953125,-0.001953125,0.61328125,-0.078125,9.73046875
20,463000000,imu1_frame,-0.00140380859375,-0.02996826171875,0.01007080078125,0.99951171875,0.001953125,0.0,0.001953125,0.61328125,-0.078125,9.73046875
20,488000000,imu1_frame,-0.00140380859375,-0.02996826171875,0.01007080078125,0.99951171875,-0.001953125,-0.00390625,-0.001953125,0.61328125,-0.078125,9.73046875
20,513000000,imu1_frame,-0.00140380859375,-0.02996826171875,0.01007080078125,0.99951171875,-0.001953125,-0.00390625,-0.001953125,0.61328125,-0.0390625,9.73046875
20,538000000,imu1_frame,-0.00140380859375,-0.02996826171875,0.01007080078125,0.99951171875,0.001953125,0.001953125,0.00390625,0.61328125,-0.0390625,9.73046875
20,563000000,imu1_frame,-0.00140380859375,-0.02996826171875,0.01007080078125,0.99951171875,0.001953125,0.001953125,0.00390625,0.61328125,-0.0390625,9.73046875
20,588000000,imu1_frame,-0.00140380859375,-0.02996826171875,0.01007080078125,0.99951171875,0.00390625,0.0,-0.001953125,0.61328125,-0.0390625,9.73046875
20,613000000,imu1_frame,-0.00140380859375,-0.02996826171875,0.01007080078125,0.99951171875,-0.001953125,-0.013671875,-0.001953125,0.61328125,-0.0390625,9.73046875
20,638000000,imu1_frame,-0.00140380859375,-0.02996826171875,0.01007080078125,0.99951171875,-0.001953125,-0.013671875,-0.001953125,0.61328125,-0.078125,9.73046875
20,663000000,imu1_frame,-0.00140380859375,-0.02996826171875,0.01007080078125,0.99951171875,-0.001953125,-0.001953125,-0.001953125,0.61328125,-0.078125,9.73046875
20,688000000,imu1_frame,-0.00140380859375,-0.02996826171875,0.01007080078125,0.99951171875,-0.00390625,0.005859375,-0.001953125,0.61328125,-0.078125,9.73046875
20,713000000,imu1_frame,-0.00140380859375,-0.02996826171875,0.01007080078125,0.99951171875,-0.00390625,0.005859375,-0.001953125,0.61328125,-0.078125,9.73046875
20,738000000,imu1_frame,-0.00140380859375,-0.02996826171875,0.01007080078125,0.99951171875,-0.00390625,0.005859375,-0.001953125,0.61328125,-0.078125,9.73046875
20,763000000,imu1_frame,-0.00140380859375,-0.02996826171875,0.01007080078125,0.99951171875,-0.001953125,0.00390625,0.00390625,0.61328125,-0.078125,9.73046875
20,788000000,imu1_frame,-0.00140380859375,-0.02996826171875,0.01007080078125,0.99951171875,0.001953125,0.005859375,0.001953125,0.61328125,-0.078125,9.73046875
20,813000000,imu1_frame,-0.00140380859375,-0.02996826171875,0.01007080078125,0.99951171875,0.001953125,0.005859375,0.001953125,0.61328125,-0.0390625,9.73046875
20,838000000,imu1_frame,-0.00140380859375,-0.02996826171875,0.01007080078125,0.99951171875,-0.0078125,-0.009765625,-0.001953125,0.61328125,-0.0390625,9.73046875
20,863000000,imu1_frame,-0.00140380859375,-0.02996826171875,0.01007080078125,0.99951171875,-0.0078125,-0.009765625,-0.001953125,0.61328125,-0.0390625,9.73046875
20,888000000,imu1_frame,-0.00140380859375,-0.02996826171875,0.01007080078125,0.99951171875,-0.005859375,-0.0078125,-0.001953125,0.61328125,-0.0390625,9.73046875
20,913000000,imu1_frame,-0.00140380859375,-0.02996826171875,0.01007080078125,0.99951171875,-0.00390625,-0.00390625,0.0,0.61328125,-0.0390625,9.73046875
20,938000000,imu1_frame,-0.00140380859375,-0.02996826171875,0.01007080078125,0.99951171875,-0.00390625,-0.00390625,0.0,0.61328125,-0.0390625,9.73046875
20,963000000,imu1_frame,-0.00140380859375,-0.02996826171875,0.01007080078125,0.99951171875,0.0,-0.001953125,0.0,0.61328125,-0.0390625,9.73046875
20,988000000,imu1_frame,-0.00140380859375,-0.02996826171875,0.01007080078125,0.99951171875,0.00390625,0.0,0.0,0.61328125,-0.0390625,9.73046875
21,13000000,imu1_frame,-0.00140380859375,-0.02996826171875,0.01007080078125,0.99951171875,0.00390625,0.0,0.0,0.61328125,-0.0390625,9.73046875
21,38000000,imu1_frame,-0.00140380859375,-0.02996826171875,0.01007080078125,0.99951171875,0.00390625,0.0,0.0,0.61328125,-0.0390625,9.73046875
21,63000000,imu1_frame,-0.00140380859375,-0.02996826171875,0.01007080078125,0.99951171875,0.00390625,0.009765625,0.001953125,0.61328125,-0.0390625,9.73046875
21,88000000,imu1_frame,-0.00140380859375,-0.02996826171875,0.01007080078125,0.99951171875,0.005859375,0.01953125,-0.001953125,0.61328125,-0.0390625,9.73046875
21,113000000,imu1_frame,-0.00140380859375,-0.02996826171875,0.01007080078125,0.99951171875,0.005859375,0.01953125,-0.001953125,0.57421875,-0.0390625,9.7265625
21,138000000,imu1_frame,-0.00140380859375,-0.02996826171875,0.01007080078125,0.99951171875,0.005859375,0.017578125,-0.001953125,0.57421875,-0.0390625,9.7265625
21,163000000,imu1_frame,-0.00140380859375,-0.02996826171875,0.01007080078125,0.99951171875,0.005859375,0.017578125,-0.001953125,0.57421875,-0.0390625,9.7265625
21,188000000,imu1_frame,-0.00140380859375,-0.02996826171875,0.01007080078125,0.99951171875,0.0,0.00390625,0.0,0.57421875,-0.0390625,9.7265625
21,213000000,imu1_frame,-0.00140380859375,-0.02996826171875,0.01007080078125,0.99951171875,-0.001953125,0.00390625,-0.001953125,0.57421875,-0.0390625,9.7265625
21,238000000,imu1_frame,-0.00140380859375,-0.02996826171875,0.01007080078125,0.99951171875,-0.001953125,0.00390625,-0.001953125,0.57421875,-0.0390625,9.7265625
21,263000000,imu1_frame,-0.00140380859375,-0.02996826171875,0.01007080078125,0.99951171875,0.001953125,0.001953125,-0.001953125,0.57421875,-0.0390625,9.7265625
21,288000000,imu1_frame,-0.00140380859375,-0.02996826171875,0.01007080078125,0.99951171875,0.001953125,-0.001953125,0.00390625,0.57421875,-0.0390625,9.7265625
21,313000000,imu1_frame,-0.00140380859375,-0.02996826171875,0.01007080078125,0.99951171875,0.001953125,-0.001953125,0.00390625,0.57421875,-0.0390625,9.76953125
21,338000000,imu1_frame,-0.00140380859375,-0.02996826171875,0.01007080078125,0.99951171875,0.001953125,-0.001953125,0.00390625,0.57421875,-0.0390625,9.7265625
21,363000000,imu1_frame,-0.00140380859375,-0.02996826171875,0.01007080078125,0.99951171875,0.001953125,-0.00390625,0.001953125,0.57421875,-0.0390625,9.7265625
21,388000000,imu1_frame,-0.00140380859375,-0.02996826171875,0.01007080078125,0.99951171875,-0.001953125,-0.013671875,-0.001953125,0.57421875,-0.0390625,9.7265625
21,413000000,imu1_frame,-0.00140380859375,-0.02996826171875,0.01007080078125,0.99951171875,-0.001953125,-0.013671875,-0.001953125,0.57421875,-0.0390625,9.7265625
21,438000000,imu1_frame,-0.00140380859375,-0.02996826171875,0.01007080078125,0.99951171875,-0.00390625,-0.0078125,0.001953125,0.57421875,-0.0390625,9.7265625
21,463000000,imu1_frame,-0.00140380859375,-0.02996826171875,0.01007080078125,0.99951171875,-0.00390625,-0.0078125,0.001953125,0.57421875,-0.0390625,9.7265625
21,488000000,imu1_frame,-0.00140380859375,-0.02996826171875,0.01007080078125,0.99951171875,-0.005859375,-0.00390625,0.001953125,0.57421875,-0.0390625,9.7265625
21,513000000,imu1_frame,-0.00140380859375,-0.02996826171875,0.01007080078125,0.99951171875,0.001953125,-0.001953125,0.001953125,0.57421875,-0.0390625,9.7265625
21,538000000,imu1_frame,-0.00140380859375,-0.02996826171875,0.01007080078125,0.99951171875,0.001953125,-0.001953125,0.001953125,0.61328125,-0.0390625,9.73046875
21,563000000,imu1_frame,-0.00140380859375,-0.02996826171875,0.01007080078125,0.99951171875,-0.00390625,-0.0078125,0.001953125,0.61328125,-0.0390625,9.73046875
21,588000000,imu1_frame,-0.00140380859375,-0.02996826171875,0.01007080078125,0.99951171875,-0.00390625,-0.013671875,0.001953125,0.61328125,-0.0390625,9.73046875
21,613000000,imu1_frame,-0.00140380859375,-0.02996826171875,0.01007080078125,0.99951171875,-0.00390625,-0.013671875,0.001953125,0.57421875,-0.0390625,9.6875
21,638000000,imu1_frame,-0.00140380859375,-0.02996826171875,0.01007080078125,0.99951171875,-0.00390625,-0.013671875,0.001953125,0.57421875,-0.078125,9.7265625
21,663000000,imu1_frame,-0.00140380859375,-0.02996826171875,0.01007080078125,0.99951171875,0.0,-0.001953125,0.00390625,0.57421875,-0.078125,9.7265625
21,688000000,imu1_frame,-0.00140380859375,-0.02996826171875,0.01007080078125,0.99951171875,0.001953125,-0.005859375,0.00390625,0.57421875,-0.078125,9.7265625
21,713000000,imu1_frame,-0.00140380859375,-0.02996826171875,0.01007080078125,0.99951171875,0.001953125,-0.005859375,0.00390625,0.61328125,-0.0390625,9.73046875
21,738000000,imu1_frame,-0.00140380859375,-0.02996826171875,0.01007080078125,0.99951171875,-0.00390625,-0.009765625,0.0,0.61328125,-0.0390625,9.73046875
21,763000000,imu1_frame,-0.00140380859375,-0.02996826171875,0.01007080078125,0.99951171875,-0.00390625,-0.009765625,0.0,0.57421875,-0.0390625,9.7265625
21,788000000,imu1_frame,-0.00140380859375,-0.02996826171875,0.01007080078125,0.99951171875,-0.005859375,-0.013671875,0.001953125,0.57421875,-0.0390625,9.7265625
21,813000000,imu1_frame,-0.00140380859375,-0.02996826171875,0.01007080078125,0.99951171875,-0.001953125,-0.001953125,0.00390625,0.57421875,-0.0390625,9.7265625
21,838000000,imu1_frame,-0.00140380859375,-0.02996826171875,0.01007080078125,0.99951171875,-0.001953125,-0.001953125,0.00390625,0.61328125,-0.078125,9.73046875
21,863000000,imu1_frame,-0.00140380859375,-0.02996826171875,0.01007080078125,0.99951171875,-0.005859375,-0.01171875,0.0078125,0.61328125,-0.078125,9.73046875
21,888000000,imu1_frame,-0.00140380859375,-0.02996826171875,0.01007080078125,0.99951171875,-0.005859375,-0.01171875,0.0078125,0.61328125,-0.078125,9.73046875
21,913000000,imu1_frame,-0.00140380859375,-0.02996826171875,0.01007080078125,0.99951171875,-0.005859375,-0.01171875,0.0078125,0.53515625,-0.11328125,9.73046875
21,938000000,imu1_frame,-0.00140380859375,-0.02996826171875,0.01007080078125,0.99951171875,-0.005859375,-0.01171875,0.0078125,0.57421875,-0.078125,9.7265625
21,963000000,imu1_frame,-0.00140380859375,-0.02996826171875,0.01007080078125,0.99951171875,-0.0078125,-0.013671875,0.005859375,0.57421875,-0.078125,9.7265625
21,988000000,imu1_frame,-0.00140380859375,-0.02996826171875,0.01007080078125,0.99951171875,-0.001953125,-0.0078125,0.0,0.57421875,-0.078125,9.7265625
22,13000000,imu1_frame,-0.00140380859375,-0.02996826171875,0.01007080078125,0.99951171875,-0.001953125,-0.0078125,0.0,0.53515625,-0.11328125,9.73046875
22,38000000,imu1_frame,-0.00140380859375,-0.02996826171875,0.01007080078125,0.99951171875,0.0,-0.00390625,0.0078125,0.53515625,-0.11328125,9.73046875
22,63000000,imu1_frame,-0.00140380859375,-0.02996826171875,0.01007080078125,0.99951171875,0.0,-0.00390625,0.0078125,0.65234375,0.0,9.73046875
22,88000000,imu1_frame,-0.00140380859375,-0.02996826171875,0.01007080078125,0.99951171875,-0.001953125,-0.001953125,0.0078125,0.65234375,0.0,9.73046875
22,113000000,imu1_frame,-0.00140380859375,-0.02996826171875,0.01007080078125,0.99951171875,0.00390625,-0.00390625,0.0,0.65234375,0.0,9.73046875
22,138000000,imu1_frame,-0.00140380859375,-0.02996826171875,0.01007080078125,0.99951171875,0.00390625,-0.00390625,0.0,0.61328125,0.0,9.73046875
22,163000000,imu1_frame,-0.00140380859375,-0.02996826171875,0.01007080078125,0.99951171875,-0.00390625,-0.001953125,0.00390625,0.61328125,0.0,9.73046875
22,188000000,imu1_frame,-0.00140380859375,-0.02996826171875,0.01007080078125,0.99951171875,-0.001953125,0.0,0.0,0.61328125,0.0,9.73046875
22,213000000,imu1_frame,-0.00140380859375,-0.02996826171875,0.01007080078125,0.99951171875,-0.001953125,0.0,0.0,0.57421875,-0.0390625,9.7265625
22,238000000,imu1_frame,-0.00140380859375,-0.02996826171875,0.01007080078125,0.99951171875,-0.001953125,0.0,0.0,0.61328125,0.0,9.73046875
22,263000000,imu1_frame,-0.00140380859375,-0.02996826171875,0.01007080078125,0.99951171875,-0.001953125,-0.0078125,0.001953125,0.61328125,0.0,9.73046875
22,288000000,imu1_frame,-0.00140380859375,-0.02996826171875,0.01007080078125,0.99951171875,0.00390625,0.013671875,0.00390625,0.61328125,0.0,9.73046875
22,313000000,imu1_frame,-0.00140380859375,-0.02996826171875,0.01007080078125,0.99951171875,0.00390625,0.013671875,0.00390625,0.61328125,-0.078125,9.73046875
22,338000000,imu1_frame,-0.00140380859375,-0.02996826171875,0.01007080078125,0.99951171875,-0.00390625,-0.0078125,0.021484375,0.61328125,-0.078125,9.73046875
22,363000000,imu1_frame,-0.00140380859375,-0.02996826171875,0.01007080078125,0.99951171875,-0.00390625,-0.0078125,0.021484375,0.57421875,-0.0390625,9.7265625
22,388000000,imu1_frame,-0.00140380859375,-0.02996826171875,0.01007080078125,0.99951171875,0.0,-0.00390625,-0.001953125,0.57421875,-0.0390625,9.7265625
22,413000000,imu1_frame,-0.00140380859375,-0.02996826171875,0.01007080078125,0.99951171875,-0.01171875,-0.025390625,-0.001953125,0.57421875,-0.0390625,9.7265625
22,438000000,imu1_frame,-0.00140380859375,-0.02996826171875,0.01007080078125,0.99951171875,-0.01171875,-0.025390625,-0.001953125,0.61328125,0.0,9.73046875
22,463000000,imu1_frame,-0.00140380859375,-0.02996826171875,0.01007080078125,0.99951171875,-0.0078125,-0.021484375,0.001953125,0.61328125,0.0,9.73046875
22,488000000,imu1_frame,-0.00140380859375,-0.02996826171875,0.01007080078125,0.99951171875,-0.005859375,-0.015625,-0.001953125,0.61328125,0.0,9.73046875
22,513000000,imu1_frame,-0.00140380859375,-0.02996826171875,0.01007080078125,0.99951171875,-0.005859375,-0.015625,-0.001953125,0.65234375,0.0,9.69140625
22,538000000,imu1_frame,-0.00140380859375,-0.02996826171875,0.01007080078125,0.99951171875,-0.005859375,-0.015625,-0.001953125,0.61328125,-0.0390625,9.73046875
22,563000000,imu1_frame,-0.00140380859375,-0.02996826171875,0.01007080078125,0.99951171875,-0.00390625,-0.00390625,0.001953125,0.61328125,-0.0390625,9.73046875
22,588000000,imu1_frame,-0.00140380859375,-0.02996826171875,0.01007080078125,0.99951171875,-0.005859375,-0.009765625,0.0,0.61328125,-0.0390625,9.73046875
22,613000000,imu1_frame,-0.00140380859375,-0.02996826171875,0.01007080078125,0.99951171875,-0.005859375,-0.009765625,0.0,0.65234375,-0.0390625,9.73046875
22,638000000,imu1_frame,-0.00140380859375,-0.02996826171875,0.01007080078125,0.99951171875,-0.001953125,0.001953125,0.001953125,0.65234375,-0.0390625,9.73046875
22,663000000,imu1_frame,-0.00140380859375,-0.02996826171875,0.01007080078125,0.99951171875,-0.001953125,0.001953125,0.001953125,0.61328125,-0.11328125,9.73046875
22,688000000,imu1_frame,-0.00140380859375,-0.02996826171875,0.01007080078125,0.99951171875,-0.001953125,0.0078125,-0.001953125,0.61328125,-0.11328125,9.73046875
22,713000000,imu1_frame,-0.00140380859375,-0.02996826171875,0.01007080078125,0.99951171875,0.00390625,0.015625,0.005859375,0.61328125,-0.11328125,9.73046875
22,738000000,imu1_frame,-0.00140380859375,-0.02996826171875,0.01007080078125,0.99951171875,0.00390625,0.015625,0.005859375,0.61328125,-0.078125,9.73046875
22,763000000,imu1_frame,-0.00140380859375,-0.02996826171875,0.01007080078125,0.99951171875,-0.00390625,-0.00390625,0.0,0.61328125,-0.078125,9.73046875
22,788000000,imu1_frame,-0.00140380859375,-0.02996826171875,0.01007080078125,0.99951171875,0.00390625,0.001953125,0.00390625,0.61328125,-0.078125,9.73046875
22,813000000,imu1_frame,-0.00140380859375,-0.02996826171875,0.01007080078125,0.99951171875,0.00390625,0.001953125,0.00390625,0.61328125,-0.078125,9.73046875
22,838000000,imu1_frame,-0.00140380859375,-0.02996826171875,0.01007080078125,0.99951171875,0.00390625,0.001953125,0.00390625,0.61328125,-0.078125,9.73046875
22,863000000,imu1_frame,-0.00140380859375,-0.02996826171875,0.01007080078125,0.99951171875,0.00390625,0.009765625,0.005859375,0.61328125,-0.078125,9.73046875
22,888000000,imu1_frame,-0.00140380859375,-0.02996826171875,0.01007080078125,0.99951171875,0.001953125,0.00390625,0.009765625,0.61328125,-0.078125,9.73046875
22,913000000,imu1_frame,-0.00140380859375,-0.02996826171875,0.01007080078125,0.99951171875,0.001953125,0.00390625,0.009765625,0.57421875,0.0,9.6875
22,938000000,imu1_frame,-0.00140380859375,-0.02996826171875,0.01007080078125,0.99951171875,0.001953125,0.009765625,-0.001953125,0.57421875,0.0,9.6875
22,963000000,imu1_frame,-0.00140380859375,-0.02996826171875,0.01007080078125,0.99951171875,0.001953125,0.009765625,-0.001953125,0.61328125,-0.078125,9.73046875
22,988000000,imu1_frame,-0.00140380859375,-0.02996826171875,0.01007080078125,0.99951171875,-0.001953125,0.001953125,0.005859375,0.61328125,-0.078125,9.73046875
23,13000000,imu1_frame,-0.00140380859375,-0.02996826171875,0.01007080078125,0.99951171875,-0.001953125,0.001953125,0.005859375,0.65234375,-0.078125,9.73046875
23,38000000,imu1_frame,-0.00140380859375,-0.02996826171875,0.01007080078125,0.99951171875,-0.001953125,0.001953125,0.005859375,0.61328125,-0.11328125,9.73046875
23,63000000,imu1_frame,-0.00140380859375,-0.02996826171875,0.01007080078125,0.99951171875,0.001953125,0.00390625,0.001953125,0.61328125,-0.11328125,9.73046875
23,88000000,imu1_frame,-0.00140380859375,-0.02996826171875,0.01007080078125,0.99951171875,0.001953125,0.00390625,0.001953125,0.65234375,-0.078125,9.73046875
23,113000000,imu1_frame,-0.00140380859375,-0.02996826171875,0.01007080078125,0.99951171875,0.001953125,0.00390625,0.001953125,0.61328125,-0.11328125,9.73046875
23,138000000,imu1_frame,-0.00140380859375,-0.02996826171875,0.01007080078125,0.99951171875,0.001953125,0.00390625,0.001953125,0.61328125,-0.11328125,9.73046875
23,163000000,imu1_frame,-0.00140380859375,-0.02996826171875,0.01007080078125,0.99951171875,-0.00390625,-0.017578125,0.00390625,0.61328125,-0.11328125,9.73046875
23,188000000,imu1_frame,-0.00384521484375,-0.0328369140625,0.013671875,0.9993896484375,-0.00390625,-0.017578125,0.00390625,0.61328125,-0.11328125,9.73046875
23,213000000,imu1_frame,-0.00384521484375,-0.0328369140625,0.013671875,0.9993896484375,-0.00390625,-0.017578125,0.00390625,0.61328125,-0.11328125,9.73046875
23,238000000,imu1_frame,-0.00384521484375,-0.0328369140625,0.013671875,0.9993896484375,-0.013671875,-0.02734375,0.00390625,0.61328125,-0.11328125,9.73046875
23,263000000,imu1_frame,-0.00384521484375,-0.0328369140625,0.013671875,0.9993896484375,-0.0078125,-0.01953125,0.013671875,0.61328125,-0.11328125,9.73046875
23,288000000,imu1_frame,-0.00433349609375,-0.0338134765625,0.01416015625,0.99932861328125,-0.0078125,-0.01953125,0.013671875,0.61328125,-0.11328125,9.73046875
23,313000000,imu1_frame,-0.00433349609375,-0.0338134765625,0.01416015625,0.99932861328125,-0.001953125,0.0,0.00390625,0.61328125,-0.11328125,9.73046875
23,338000000,imu1_frame,-0.00433349609375,-0.0338134765625,0.01416015625,0.99932861328125,-0.001953125,0.0,0.00390625,0.65234375,-0.078125,9.73046875
23,363000000,imu1_frame,-0.00433349609375,-0.0338134765625,0.01416015625,0.99932861328125,-0.001953125,0.0,0.005859375,0.65234375,-0.078125,9.73046875
23,388000000,imu1_frame,-0.00433349609375,-0.0338134765625,0.01416015625,0.99932861328125,-0.001953125,0.0,0.005859375,0.61328125,-0.11328125,9.69140625
23,413000000,imu1_frame,-0.00433349609375,-0.0338134765625,0.01416015625,0.99932861328125,-0.001953125,0.0,0.005859375,0.61328125,-0.078125,9.73046875
23,438000000,imu1_frame,-0.00433349609375,-0.0338134765625,0.01416015625,0.99932861328125,-0.001953125,0.0,0.005859375,0.65234375,-0.078125,9.73046875
23,463000000,imu1_frame,-0.00433349609375,-0.0338134765625,0.01416015625,0.99932861328125,-0.00390625,-0.0078125,0.001953125,0.65234375,-0.078125,9.73046875
23,488000000,imu1_frame,-0.00433349609375,-0.0338134765625,0.01416015625,0.99932861328125,-0.001953125,-0.00390625,0.001953125,0.65234375,-0.078125,9.73046875
23,513000000,imu1_frame,-0.00433349609375,-0.0338134765625,0.01416015625,0.99932861328125,-0.001953125,-0.00390625,0.001953125,0.65234375,-0.11328125,9.73046875
23,538000000,imu1_frame,-0.00433349609375,-0.0338134765625,0.01416015625,0.99932861328125,-0.00390625,-0.0078125,0.005859375,0.65234375,-0.11328125,9.73046875
23,563000000,imu1_frame,-0.00433349609375,-0.0338134765625,0.01416015625,0.99932861328125,-0.001953125,-0.00390625,0.00390625,0.65234375,-0.11328125,9.73046875
23,588000000,imu1_frame,-0.004638671875,-0.0341796875,0.0147705078125,0.999267578125,-0.001953125,-0.00390625,0.00390625,0.65234375,-0.11328125,9.73046875
23,613000000,imu1_frame,-0.004638671875,-0.0341796875,0.0147705078125,0.999267578125,-0.001953125,-0.00390625,0.00390625,0.65234375,-0.11328125,9.73046875
23,638000000,imu1_frame,-0.004638671875,-0.0341796875,0.0147705078125,0.999267578125,-0.001953125,-0.00390625,0.00390625,0.69140625,-0.078125,9.7265625
23,663000000,imu1_frame,-0.004638671875,-0.0341796875,0.0147705078125,0.999267578125,-0.0078125,-0.01171875,0.001953125,0.69140625,-0.078125,9.7265625
23,688000000,imu1_frame,-0.004638671875,-0.0341796875,0.0147705078125,0.999267578125,-0.0078125,-0.01171875,0.001953125,0.61328125,-0.11328125,9.73046875
23,713000000,imu1_frame,-0.004638671875,-0.0341796875,0.0147705078125,0.999267578125,-0.0078125,-0.01171875,0.001953125,0.69140625,-0.078125,9.7265625
23,738000000,imu1_frame,-0.004638671875,-0.0341796875,0.0147705078125,0.999267578125,-0.0078125,-0.01171875,0.001953125,0.69140625,-0.078125,9.7265625
23,763000000,imu1_frame,-0.004638671875,-0.0341796875,0.0147705078125,0.999267578125,0.0234375,0.06640625,0.01953125,0.69140625,-0.078125,9.7265625
23,788000000,imu1_frame,-0.004638671875,-0.0341796875,0.0147705078125,0.999267578125,0.0078125,0.021484375,0.001953125,0.69140625,-0.078125,9.7265625
23,813000000,imu1_frame,-0.004638671875,-0.0341796875,0.0147705078125,0.999267578125,0.0078125,0.021484375,0.001953125,0.65234375,-0.078125,9.73046875
23,838000000,imu1_frame,-0.004638671875,-0.0341796875,0.0147705078125,0.999267578125,-0.009765625,-0.015625,-0.001953125,0.65234375,-0.078125,9.73046875
23,863000000,imu1_frame,-0.004638671875,-0.0341796875,0.0147705078125,0.999267578125,-0.00390625,-0.009765625,-0.001953125,0.65234375,-0.078125,9.73046875
23,888000000,imu1_frame,-0.00482177734375,-0.03411865234375,0.01513671875,0.999267578125,-0.00390625,-0.009765625,-0.001953125,0.65234375,-0.078125,9.73046875
23,913000000,imu1_frame,-0.00482177734375,-0.03411865234375,0.01513671875,0.999267578125,-0.00390625,-0.009765625,-0.001953125,0.69140625,-0.11328125,9.7265625
23,938000000,imu1_frame,-0.00482177734375,-0.03411865234375,0.01513671875,0.999267578125,-0.00390625,-0.01171875,0.001953125,0.69140625,-0.11328125,9.7265625
23,963000000,imu1_frame,-0.00482177734375,-0.03411865234375,0.01513671875,0.999267578125,-0.00390625,-0.00390625,0.001953125,0.69140625,-0.11328125,9.7265625
23,988000000,imu1_frame,-0.00482177734375,-0.03411865234375,0.01513671875,0.999267578125,-0.00390625,-0.00390625,0.001953125,0.69140625,-0.11328125,9.7265625
24,13000000,imu1_frame,-0.00482177734375,-0.03411865234375,0.01513671875,0.999267578125,-0.00390625,-0.00390625,0.001953125,0.65234375,-0.078125,9.73046875
24,38000000,imu1_frame,-0.00482177734375,-0.03411865234375,0.01513671875,0.999267578125,-0.00390625,-0.00390625,0.001953125,0.65234375,-0.11328125,9.69140625
24,63000000,imu1_frame,-0.00482177734375,-0.03411865234375,0.01513671875,0.999267578125,0.005859375,0.00390625,0.001953125,0.65234375,-0.11328125,9.69140625
24,88000000,imu1_frame,-0.00506591796875,-0.03466796875,0.01519775390625,0.999267578125,0.005859375,0.00390625,0.001953125,0.65234375,-0.11328125,9.69140625
24,113000000,imu1_frame,-0.00506591796875,-0.03466796875,0.01519775390625,0.999267578125,0.005859375,0.00390625,0.001953125,0.65234375,-0.078125,9.73046875
24,138000000,imu1_frame,-0.00506591796875,-0.03466796875,0.01519775390625,0.999267578125,0.001953125,0.00390625,-0.001953125,0.65234375,-0.078125,9.73046875
24,163000000,imu1_frame,-0.00506591796875,-0.03466796875,0.01519775390625,0.999267578125,0.001953125,0.0,-0.001953125,0.65234375,-0.078125,9.73046875
24,188000000,imu1_frame,-0.0050048828125,-0.03436279296875,0.01513671875,0.999267578125,0.001953125,0.0,-0.001953125,0.65234375,-0.078125,9.73046875
24,213000000,imu1_frame,-0.0050048828125,-0.03436279296875,0.01513671875,0.999267578125,0.001953125,0.0,-0.001953125,0.65234375,-0.0390625,9.73046875
24,238000000,imu1_frame,-0.0050048828125,-0.03436279296875,0.01513671875,0.999267578125,-0.00390625,-0.017578125,0.0,0.65234375,-0.0390625,9.73046875
24,263000000,imu1_frame,-0.0050048828125,-0.03436279296875,0.01513671875,0.999267578125,-0.009765625,-0.03125,0.0,0.65234375,-0.0390625,9.73046875
24,288000000,imu1_frame,-0.0050048828125,-0.03436279296875,0.01513671875,0.999267578125,-0.009765625,-0.03125,0.0,0.65234375,-0.11328125,9.73046875
24,313000000,imu1_frame,-0.0050048828125,-0.03436279296875,0.01513671875,0.999267578125,0.0,-0.00390625,0.0,0.65234375,-0.11328125,9.73046875
24,338000000,imu1_frame,-0.0050048828125,-0.03436279296875,0.01513671875,0.999267578125,0.0,-0.00390625,0.0,0.65234375,-0.15234375,9.73046875
24,363000000,imu1_frame,-0.0050048828125,-0.03436279296875,0.01513671875,0.999267578125,-0.00390625,-0.0078125,0.0,0.65234375,-0.15234375,9.73046875
24,388000000,imu1_frame,-0.0050048828125,-0.03436279296875,0.01513671875,0.999267578125,-0.00390625,-0.0078125,0.0,0.69140625,-0.11328125,9.7265625
24,413000000,imu1_frame,-0.0050048828125,-0.03436279296875,0.01513671875,0.999267578125,-0.00390625,-0.0078125,0.0,0.65234375,-0.11328125,9.23046875
24,438000000,imu1_frame,-0.0050048828125,-0.03436279296875,0.01513671875,0.999267578125,0.00390625,-0.001953125,0.00390625,0.65234375,-0.11328125,9.23046875
24,463000000,imu1_frame,-0.0050048828125,-0.03436279296875,0.01513671875,0.999267578125,0.001953125,0.0078125,0.001953125,0.65234375,-0.11328125,9.23046875
24,488000000,imu1_frame,-0.0054931640625,-0.04345703125,0.01495361328125,0.99920654296875,0.001953125,0.0078125,0.001953125,0.65234375,-0.11328125,9.23046875
24,513000000,imu1_frame,-0.0054931640625,-0.04345703125,0.01495361328125,0.99920654296875,0.001953125,0.0078125,0.001953125,0.65234375,-0.11328125,9.73046875
24,538000000,imu1_frame,-0.0054931640625,-0.04345703125,0.01495361328125,0.99920654296875,0.00390625,0.001953125,0.001953125,0.65234375,-0.11328125,9.73046875
24,563000000,imu1_frame,-0.0054931640625,-0.04345703125,0.01495361328125,0.99920654296875,0.001953125,0.001953125,0.0,0.65234375,-0.11328125,9.73046875
24,588000000,imu1_frame,-0.0054931640625,-0.04345703125,0.01495361328125,0.99920654296875,0.001953125,0.001953125,0.0,0.65234375,-0.11328125,9.23046875
24,613000000,imu1_frame,-0.0054931640625,-0.04345703125,0.01495361328125,0.99920654296875,0.001953125,0.001953125,0.0,0.65234375,-0.11328125,9.23046875
24,638000000,imu1_frame,-0.0054931640625,-0.04345703125,0.01495361328125,0.99920654296875,0.001953125,0.001953125,0.0,0.65234375,-0.11328125,9.73046875
24,663000000,imu1_frame,-0.0054931640625,-0.04345703125,0.01495361328125,0.99920654296875,0.00390625,0.01171875,-0.00390625,0.65234375,-0.11328125,9.73046875
24,688000000,imu1_frame,-0.0054931640625,-0.04345703125,0.01495361328125,0.99920654296875,0.00390625,0.01171875,-0.00390625,0.11328125,-0.11328125,9.23046875
24,713000000,imu1_frame,-0.0054931640625,-0.04345703125,0.01495361328125,0.99920654296875,0.00390625,0.01171875,-0.00390625,0.65234375,-0.11328125,9.23046875
24,738000000,imu1_frame,-0.0054931640625,-0.04345703125,0.01495361328125,0.99920654296875,0.00390625,0.01171875,-0.00390625,0.65234375,-0.11328125,9.23046875
24,763000000,imu1_frame,-0.0054931640625,-0.04345703125,0.01495361328125,0.99920654296875,-0.001953125,-0.009765625,0.0,0.65234375,-0.11328125,9.23046875
24,788000000,imu1_frame,-0.0054931640625,-0.04345703125,0.01495361328125,0.99920654296875,-0.001953125,-0.009765625,0.0,0.65234375,-0.078125,9.73046875
24,813000000,imu1_frame,-0.0054931640625,-0.04345703125,0.01495361328125,0.99920654296875,-0.001953125,-0.009765625,0.0,0.69140625,-0.11328125,9.2265625
24,838000000,imu1_frame,-0.0054931640625,-0.04345703125,0.01495361328125,0.99920654296875,0.009765625,0.015625,-0.001953125,0.69140625,-0.11328125,9.2265625
24,863000000,imu1_frame,-0.0054931640625,-0.04345703125,0.01495361328125,0.99920654296875,0.0234375,0.05859375,0.0,0.69140625,-0.11328125,9.2265625
24,888000000,imu1_frame,-0.0054931640625,-0.04345703125,0.01495361328125,0.99920654296875,0.0234375,0.05859375,0.0,0.49609375,-0.0390625,9.37890625
24,913000000,imu1_frame,-0.0054931640625,-0.04345703125,0.01495361328125,0.99920654296875,0.0234375,0.05859375,0.0,0.15234375,-0.11328125,9.23046875
24,938000000,imu1_frame,-0.0054931640625,-0.04345703125,0.01495361328125,0.99920654296875,0.0234375,0.05859375,0.0,0.15234375,-0.078125,9.23046875
24,963000000,imu1_frame,-0.0054931640625,-0.04345703125,0.01495361328125,0.99920654296875,-0.02734375,-0.033203125,0.00390625,0.15234375,-0.078125,9.23046875
24,988000000,imu1_frame,-0.0054931640625,-0.04345703125,0.01495361328125,0.99920654296875,-0.02734375,-0.033203125,0.00390625,0.37890625,-0.11328125,9.01953125
25,13000000,imu1_frame,-0.0054931640625,-0.04345703125,0.01495361328125,0.99920654296875,-0.02734375,-0.033203125,0.00390625,0.19140625,-0.11328125,9.4453125
25,63000000,imu1_frame,-0.0054931640625,-0.04345703125,0.01495361328125,0.99920654296875,-0.005859375,-0.009765625,-0.001953125,0.19140625,-0.11328125,9.4453125
25,88000000,imu1_frame,-0.0054931640625,-0.04345703125,0.01495361328125,0.99920654296875,-0.005859375,-0.009765625,-0.001953125,0.37890625,-0.11328125,17.2265625
25,113000000,imu1_frame,-0.0054931640625,-0.04345703125,0.01495361328125,0.99920654296875,0.001953125,0.0,0.0,0.37890625,-0.11328125,17.2265625
25,138000000,imu1_frame,-0.0054931640625,-0.04345703125,0.01495361328125,0.99920654296875,0.00390625,0.00390625,0.0,0.37890625,-0.11328125,17.2265625
25,163000000,imu1_frame,-0.0054931640625,-0.04345703125,0.01495361328125,0.99920654296875,-0.00390625,0.00390625,-0.001953125,0.37890625,-0.11328125,17.2265625
25,238000000,imu1_frame,-0.0054931640625,-0.04345703125,0.01495361328125,0.99920654296875,-0.00390625,0.00390625,-0.001953125,0.19140625,-0.15625,9.2265625
25,263000000,imu1_frame,-0.0054931640625,-0.04345703125,0.01495361328125,0.99920654296875,0.001953125,-0.001953125,0.001953125,0.19140625,-0.15625,9.2265625
25,288000000,imu1_frame,-0.0054931640625,-0.04345703125,0.01495361328125,0.99920654296875,0.001953125,-0.001953125,0.001953125,0.19140625,-0.23828125,9.2265625
25,313000000,imu1_frame,-0.0054931640625,-0.04345703125,0.01495361328125,0.99920654296875,0.001953125,-0.001953125,0.001953125,0.69140625,-0.078125,9.2265625
25,338000000,imu1_frame,-0.0054931640625,-0.04345703125,0.01495361328125,0.99920654296875,0.001953125,-0.001953125,0.001953125,0.19140625,-0.11328125,9.2265625
25,363000000,imu1_frame,-0.0054931640625,-0.04345703125,0.01495361328125,0.99920654296875,0.0,-0.0078125,-0.00390625,0.19140625,-0.11328125,9.2265625
25,388000000,imu1_frame,-0.0054931640625,-0.04345703125,0.01495361328125,0.99920654296875,0.0,-0.0078125,-0.00390625,0.2265625,-0.23828125,9.73046875
25,413000000,imu1_frame,-0.0054931640625,-0.04345703125,0.01495361328125,0.99920654296875,0.0,-0.0078125,-0.00390625,0.2265625,-0.078125,9.23046875
25,438000000,imu1_frame,-0.0054931640625,-0.04345703125,0.01495361328125,0.99920654296875,0.0,0.001953125,-0.001953125,0.2265625,-0.078125,9.23046875
25,463000000,imu1_frame,-0.0054931640625,-0.04345703125,0.01495361328125,0.99920654296875,0.0,0.009765625,-0.00390625,0.2265625,-0.078125,9.23046875
25,488000000,imu1_frame,-0.0054931640625,-0.04345703125,0.01495361328125,0.99920654296875,0.0,0.009765625,-0.00390625,0.2265625,-0.11328125,9.765625
25,513000000,imu1_frame,-0.0054931640625,-0.04345703125,0.01495361328125,0.99920654296875,-0.00390625,0.0,-0.001953125,0.2265625,-0.11328125,9.765625
25,538000000,imu1_frame,-0.0054931640625,-0.04345703125,0.01495361328125,0.99920654296875,-0.00390625,0.0,-0.001953125,0.15234375,-0.11328125,9.73046875
25,563000000,imu1_frame,-0.0054931640625,-0.04345703125,0.01495361328125,0.99920654296875,-0.0078125,-0.01171875,0.0,0.15234375,-0.11328125,9.73046875
25,588000000,imu1_frame,-0.0054931640625,-0.04345703125,0.01495361328125,0.99920654296875,-0.0078125,-0.01171875,0.0,0.37890625,-0.11328125,9.2265625
25,613000000,imu1_frame,-0.0054931640625,-0.04345703125,0.01495361328125,0.99920654296875,-0.0078125,-0.01171875,0.0,0.69140625,-0.11328125,9.2265625
25,663000000,imu1_frame,-0.0054931640625,-0.04345703125,0.01495361328125,0.99920654296875,-0.0078125,-0.01171875,-0.005859375,0.69140625,-0.11328125,9.2265625
25,688000000,imu1_frame,-0.0054931640625,-0.04345703125,0.01495361328125,0.99920654296875,-0.0078125,-0.01171875,-0.005859375,0.2265625,-0.11328125,9.23046875
25,713000000,imu1_frame,-0.0054931640625,-0.04345703125,0.01495361328125,0.99920654296875,-0.0078125,-0.01171875,-0.005859375,0.7265625,-0.11328125,9.23046875
25,763000000,imu1_frame,-0.0054931640625,-0.04345703125,0.01495361328125,0.99920654296875,-0.005859375,-0.00390625,-0.00390625,0.7265625,-0.11328125,9.23046875
25,788000000,imu1_frame,-0.0054931640625,-0.04345703125,0.01495361328125,0.99920654296875,-0.005859375,-0.00390625,-0.00390625,0.7265625,-0.23828125,9.44921875
25,863000000,imu1_frame,-0.0054931640625,-0.04345703125,0.01495361328125,0.99920654296875,-0.005859375,-0.009765625,-0.001953125,0.7265625,-0.23828125,9.44921875
25,888000000,imu1_frame,-0.0054931640625,-0.04345703125,0.01495361328125,0.99920654296875,-0.005859375,-0.009765625,-0.001953125,0.2265625,-0.40234375,9.23046875
25,913000000,imu1_frame,-0.0054931640625,-0.04345703125,0.01495361328125,0.99920654296875,-0.005859375,-0.009765625,-0.001953125,0.2265625,-0.80859375,9.23046875
25,938000000,imu1_frame,-0.0054931640625,-0.04345703125,0.01495361328125,0.99920654296875,0.005859375,0.00390625,0.0,0.2265625,-0.80859375,9.23046875
25,963000000,imu1_frame,-0.0054931640625,-0.04345703125,0.01495361328125,0.99920654296875,0.00390625,-0.001953125,0.0,0.2265625,-0.80859375,9.23046875
25,988000000,imu1_frame,-0.0054931640625,-0.04345703125,0.01495361328125,0.99920654296875,0.00390625,-0.001953125,0.0,0.2265625,-0.40234375,17.44921875
26,13000000,imu1_frame,-0.0054931640625,-0.04345703125,0.01495361328125,0.99920654296875,-0.00390625,-0.009765625,-0.0078125,0.2265625,-0.40234375,17.44921875
26,38000000,imu1_frame,-0.0054931640625,-0.04345703125,0.01495361328125,0.99920654296875,-0.00390625,-0.02734375,-0.001953125,0.2265625,-0.40234375,17.44921875
26,63000000,imu1_frame,-0.0054931640625,-0.04345703125,0.01495361328125,0.99920654296875,0.005859375,0.009765625,-0.00390625,0.2265625,-0.40234375,17.44921875
26,88000000,imu1_frame,-0.0054931640625,-0.04345703125,0.01495361328125,0.99920654296875,0.005859375,0.009765625,-0.00390625,0.2265625,-0.30859375,9.23046875
26,113000000,imu1_frame,-0.0054931640625,-0.04345703125,0.01495361328125,0.99920654296875,-0.052734375,-0.025390625,-0.10546875,0.2265625,-0.30859375,9.23046875
26,188000000,imu1_frame,-0.0054931640625,-0.04345703125,0.01495361328125,0.99920654296875,-0.052734375,-0.025390625,-0.10546875,0.2265625,-0.15234375,9.23046875
26,238000000,imu1_frame,-0.0054931640625,-0.04345703125,0.01495361328125,0.99920654296875,-0.005859375,0.0,-0.0078125,0.2265625,-0.15234375,9.23046875
26,263000000,imu1_frame,-0.01434326171875,-0.04461669921875,0.01123046875,0.9981689453125,-0.005859375,0.0,-0.0078125,0.2265625,-0.15234375,9.23046875
26,313000000,imu1_frame,-0.01434326171875,-0.04461669921875,0.01123046875,0.9981689453125,-0.005859375,0.0,-0.0078125,0.4453125,-0.80859375,9.23046875
26,338000000,imu1_frame,-0.01434326171875,-0.04461669921875,0.01123046875,0.9981689453125,-0.005859375,0.0,-0.0078125,0.4453125,-0.80859375,9.23046875
26,363000000,imu1_frame,-0.01434326171875,-0.04461669921875,0.01123046875,0.9981689453125,-0.001953125,-0.00390625,-0.00390625,0.4453125,-0.80859375,9.23046875
26,438000000,imu1_frame,-0.01434326171875,-0.04461669921875,0.01123046875,0.9981689453125,-0.001953125,-0.00390625,-0.00390625,0.2265625,-0.40234375,17.23046875
26,463000000,imu1_frame,-0.01434326171875,-0.04461669921875,0.01123046875,0.9981689453125,-0.001953125,-0.00390625,-0.00390625,0.2265625,-0.40234375,17.23046875
26,513000000,imu1_frame,-0.01434326171875,-0.04461669921875,0.01123046875,0.9981689453125,-0.001953125,-0.00390625,-0.00390625,0.03125,-0.48828125,17.1875
26,588000000,imu1_frame,-0.01434326171875,-0.04461669921875,0.01123046875,0.9981689453125,-0.001953125,-0.00390625,-0.00390625,0.890625,-0.48828125,17.44921875
26,663000000,imu1_frame,-0.01434326171875,-0.04461669921875,0.01123046875,0.9981689453125,0.00390625,0.001953125,-0.001953125,0.890625,-0.48828125,17.44921875
26,713000000,imu1_frame,-0.01434326171875,-0.04461669921875,0.01123046875,0.9981689453125,0.00390625,0.001953125,-0.001953125,0.890625,-0.48828125,17.44921875
26,763000000,imu1_frame,-0.01434326171875,-0.04461669921875,0.01123046875,0.9981689453125,0.005859375,0.015625,-0.001953125,0.890625,-0.48828125,17.44921875
26,788000000,imu1_frame,-0.01434326171875,-0.04461669921875,0.01123046875,0.9981689453125,0.005859375,0.015625,-0.001953125,0.515625,-0.23828125,17.03515625
26,813000000,imu1_frame,-0.01434326171875,-0.04461669921875,0.01123046875,0.9981689453125,0.005859375,0.015625,-0.001953125,0.2265625,-0.15234375,9.23046875
26,838000000,imu1_frame,-0.01434326171875,-0.04461669921875,0.01123046875,0.9981689453125,-0.001953125,0.0,-0.001953125,0.2265625,-0.15234375,9.23046875
26,863000000,imu1_frame,-0.01434326171875,-0.04461669921875,0.01123046875,0.9981689453125,-0.00390625,-0.00390625,0.0,0.2265625,-0.15234375,9.23046875
26,888000000,imu1_frame,-0.01434326171875,-0.04461669921875,0.01123046875,0.9981689453125,-0.00390625,-0.00390625,0.0,0.7265625,-0.11328125,9.73046875
26,913000000,imu1_frame,-0.01434326171875,-0.04461669921875,0.01123046875,0.9981689453125,-0.00390625,-0.00390625,0.0,0.2265625,-0.15234375,9.23046875
26,938000000,imu1_frame,-0.01434326171875,-0.04461669921875,0.01123046875,0.9981689453125,0.001953125,0.0,-0.00390625,0.2265625,-0.15234375,9.23046875
26,963000000,imu1_frame,-0.01434326171875,-0.04461669921875,0.01123046875,0.9981689453125,0.001953125,0.00390625,-0.00390625,0.2265625,-0.15234375,9.23046875
26,988000000,imu1_frame,-0.01434326171875,-0.04461669921875,0.01123046875,0.9981689453125,0.001953125,0.00390625,-0.00390625,0.7265625,-0.11328125,9.73046875
27,13000000,imu1_frame,-0.01434326171875,-0.04461669921875,0.01123046875,0.9981689453125,-0.00390625,-0.013671875,-0.001953125,0.7265625,-0.11328125,9.73046875
27,38000000,imu1_frame,-0.01434326171875,-0.04461669921875,0.01123046875,0.9981689453125,-0.00390625,-0.013671875,-0.001953125,0.765625,-0.15234375,9.7265625
27,63000000,imu1_frame,-0.01434326171875,-0.04461669921875,0.01123046875,0.9981689453125,-0.001953125,-0.00390625,-0.001953125,0.765625,-0.15234375,9.7265625
27,88000000,imu1_frame,-0.01434326171875,-0.04461669921875,0.01123046875,0.9981689453125,-0.001953125,-0.00390625,-0.001953125,0.7265625,-0.15234375,9.73046875
27,113000000,imu1_frame,-0.01434326171875,-0.04461669921875,0.01123046875,0.9981689453125,-0.001953125,-0.00390625,-0.001953125,0.7265625,-0.15234375,9.69140625
27,138000000,imu1_frame,-0.01434326171875,-0.04461669921875,0.01123046875,0.9981689453125,-0.00390625,-0.001953125,-0.001953125,0.7265625,-0.15234375,9.69140625
27,163000000,imu1_frame,-0.01434326171875,-0.04461669921875,0.01123046875,0.9981689453125,-0.005859375,-0.009765625,0.001953125,0.7265625,-0.15234375,9.69140625
27,188000000,imu1_frame,-0.01434326171875,-0.04461669921875,0.01123046875,0.9981689453125,-0.005859375,-0.009765625,0.001953125,0.7265625,-0.15234375,9.73046875
27,213000000,imu1_frame,-0.01434326171875,-0.04461669921875,0.01123046875,0.9981689453125,-0.005859375,-0.009765625,0.001953125,0.765625,-0.15234375,9.6875
27,238000000,imu1_frame,-0.01434326171875,-0.04461669921875,0.01123046875,0.9981689453125,-0.00390625,-0.005859375,0.001953125,0.765625,-0.15234375,9.6875
27,263000000,imu1_frame,-0.01434326171875,-0.04461669921875,0.01123046875,0.9981689453125,-0.001953125,0.0,-0.005859375,0.765625,-0.15234375,9.6875
27,288000000,imu1_frame,-0.01434326171875,-0.04461669921875,0.01123046875,0.9981689453125,-0.001953125,0.0,-0.005859375,0.7265625,-0.15234375,9.73046875
27,313000000,imu1_frame,-0.01434326171875,-0.04461669921875,0.01123046875,0.9981689453125,-0.001953125,-0.009765625,-0.001953125,0.7265625,-0.15234375,9.73046875
27,338000000,imu1_frame,-0.01434326171875,-0.04461669921875,0.01123046875,0.9981689453125,-0.001953125,-0.009765625,-0.001953125,0.765625,-0.11328125,9.7265625
27,363000000,imu1_frame,-0.01434326171875,-0.04461669921875,0.01123046875,0.9981689453125,-0.00390625,-0.009765625,-0.001953125,0.765625,-0.11328125,9.7265625
27,388000000,imu1_frame,-0.01434326171875,-0.04461669921875,0.01123046875,0.9981689453125,-0.00390625,-0.009765625,-0.001953125,0.765625,-0.15234375,9.7265625
27,413000000,imu1_frame,-0.01434326171875,-0.04461669921875,0.01123046875,0.9981689453125,-0.00390625,-0.009765625,-0.001953125,0.765625,-0.11328125,9.7265625
27,438000000,imu1_frame,-0.01434326171875,-0.04461669921875,0.01123046875,0.9981689453125,-0.001953125,0.0,0.001953125,0.765625,-0.11328125,9.7265625
27,463000000,imu1_frame,-0.01434326171875,-0.04461669921875,0.01123046875,0.9981689453125,0.001953125,0.00390625,0.001953125,0.765625,-0.11328125,9.7265625
27,488000000,imu1_frame,-0.01434326171875,-0.04461669921875,0.01123046875,0.9981689453125,0.001953125,0.00390625,0.001953125,0.765625,-0.15234375,9.7265625
27,513000000,imu1_frame,-0.01434326171875,-0.04461669921875,0.01123046875,0.9981689453125,0.001953125,0.00390625,0.001953125,0.765625,-0.11328125,9.7265625
27,538000000,imu1_frame,-0.01434326171875,-0.04461669921875,0.01123046875,0.9981689453125,0.00390625,0.00390625,0.00390625,0.765625,-0.11328125,9.7265625
27,563000000,imu1_frame,-0.01434326171875,-0.04461669921875,0.01123046875,0.9981689453125,0.0078125,0.01171875,-0.001953125,0.765625,-0.11328125,9.7265625
27,588000000,imu1_frame,-0.01434326171875,-0.04461669921875,0.01123046875,0.9981689453125,0.0078125,0.01171875,-0.001953125,0.765625,-0.15234375,9.7265625
27,613000000,imu1_frame,-0.01434326171875,-0.04461669921875,0.01123046875,0.9981689453125,0.001953125,0.0,0.00390625,0.765625,-0.15234375,9.7265625
27,638000000,imu1_frame,-0.01434326171875,-0.04461669921875,0.01123046875,0.9981689453125,0.001953125,0.0,0.00390625,0.7265625,-0.11328125,9.73046875
27,663000000,imu1_frame,-0.01434326171875,-0.04461669921875,0.01123046875,0.9981689453125,0.001953125,-0.00390625,0.001953125,0.7265625,-0.11328125,9.73046875
27,688000000,imu1_frame,-0.01434326171875,-0.04461669921875,0.01123046875,0.9981689453125,0.001953125,-0.00390625,0.001953125,0.765625,-0.15234375,9.7265625
27,713000000,imu1_frame,-0.01434326171875,-0.04461669921875,0.01123046875,0.9981689453125,0.001953125,-0.00390625,0.001953125,0.7265625,-0.11328125,9.73046875
27,738000000,imu1_frame,-0.01434326171875,-0.04461669921875,0.01123046875,0.9981689453125,0.005859375,0.005859375,0.0,0.7265625,-0.11328125,9.73046875
27,763000000,imu1_frame,-0.01434326171875,-0.04461669921875,0.01123046875,0.9981689453125,0.0,0.0,-0.001953125,0.7265625,-0.11328125,9.73046875
27,788000000,imu1_frame,-0.01434326171875,-0.04461669921875,0.01123046875,0.9981689453125,0.0,0.0,-0.001953125,0.7265625,-0.11328125,9.73046875
27,813000000,imu1_frame,-0.01434326171875,-0.04461669921875,0.01123046875,0.9981689453125,0.0,0.0,-0.001953125,0.7265625,-0.11328125,9.73046875
27,838000000,imu1_frame,-0.01434326171875,-0.04461669921875,0.01123046875,0.9981689453125,-0.001953125,-0.001953125,0.0,0.7265625,-0.11328125,9.73046875
27,863000000,imu1_frame,-0.01434326171875,-0.04461669921875,0.01123046875,0.9981689453125,-0.001953125,-0.001953125,0.001953125,0.7265625,-0.11328125,9.73046875
27,889000000,imu1_frame,-0.01434326171875,-0.04461669921875,0.01123046875,0.9981689453125,-0.001953125,-0.001953125,0.001953125,0.7265625,-0.11328125,9.69140625
27,913000000,imu1_frame,-0.01434326171875,-0.04461669921875,0.01123046875,0.9981689453125,0.001953125,0.009765625,0.001953125,0.7265625,-0.11328125,9.69140625
27,938000000,imu1_frame,-0.01434326171875,-0.04461669921875,0.01123046875,0.9981689453125,0.001953125,0.009765625,0.001953125,0.7265625,-0.15234375,9.73046875
27,963000000,imu1_frame,-0.01434326171875,-0.04461669921875,0.01123046875,0.9981689453125,-0.00390625,-0.00390625,0.001953125,0.7265625,-0.15234375,9.73046875
27,988000000,imu1_frame,-0.01434326171875,-0.04461669921875,0.01123046875,0.9981689453125,-0.00390625,-0.00390625,0.001953125,0.7265625,-0.11328125,9.73046875
28,13000000,imu1_frame,-0.01434326171875,-0.04461669921875,0.01123046875,0.9981689453125,-0.00390625,-0.00390625,0.001953125,0.765625,-0.15234375,9.7265625
28,38000000,imu1_frame,-0.01434326171875,-0.04461669921875,0.01123046875,0.9981689453125,-0.001953125,-0.001953125,0.0,0.765625,-0.15234375,9.7265625
28,63000000,imu1_frame,-0.01434326171875,-0.04461669921875,0.01123046875,0.9981689453125,-0.001953125,-0.001953125,0.0,0.765625,-0.15234375,9.7265625
28,88000000,imu1_frame,-0.01434326171875,-0.04461669921875,0.01123046875,0.9981689453125,-0.001953125,-0.001953125,0.0,0.765625,-0.15234375,9.7265625
28,113000000,imu1_frame,-0.01434326171875,-0.04461669921875,0.01123046875,0.9981689453125,-0.001953125,-0.001953125,0.0,0.7265625,-0.15234375,9.765625
28,138000000,imu1_frame,-0.01434326171875,-0.04461669921875,0.01123046875,0.9981689453125,0.0,0.0,0.0,0.7265625,-0.15234375,9.765625
28,163000000,imu1_frame,-0.01434326171875,-0.04461669921875,0.01123046875,0.9981689453125,0.0,0.0,0.0,0.7265625,-0.15234375,9.765625
28,188000000,imu1_frame,-0.01434326171875,-0.04461669921875,0.01123046875,0.9981689453125,0.0,0.0,0.0,0.765625,-0.15234375,9.7265625
28,213000000,imu1_frame,-0.01434326171875,-0.04461669921875,0.01123046875,0.9981689453125,0.0,0.0,0.0,0.765625,-0.15234375,9.7265625
28,238000000,imu1_frame,-0.01434326171875,-0.04461669921875,0.01123046875,0.9981689453125,0.0,0.0,0.0,0.765625,-0.15234375,9.7265625
28,263000000,imu1_frame,-0.01434326171875,-0.04461669921875,0.01123046875,0.9981689453125,0.0,0.0,0.0,0.765625,-0.15234375,9.7265625
28,288000000,imu1_frame,-0.01434326171875,-0.04461669921875,0.01123046875,0.9981689453125,0.0,0.0,0.0,0.7265625,-0.11328125,9.73046875
28,313000000,imu1_frame,-0.01434326171875,-0.04461669921875,0.01123046875,0.9981689453125,0.0,0.0,0.0,0.7265625,-0.11328125,9.73046875
28,338000000,imu1_frame,-0.01434326171875,-0.04461669921875,0.01123046875,0.9981689453125,0.0,0.0,0.0,0.7265625,-0.11328125,9.73046875
28,363000000,imu1_frame,-0.01434326171875,-0.04461669921875,0.01123046875,0.9981689453125,0.0,0.0,0.0,0.7265625,-0.11328125,9.73046875
28,388000000,imu1_frame,-0.01434326171875,-0.04461669921875,0.01123046875,0.9981689453125,0.0,0.0,0.0,0.7265625,-0.15234375,9.73046875
28,413000000,imu1_frame,-0.01434326171875,-0.04461669921875,0.01123046875,0.9981689453125,0.0,0.0,0.0,0.765625,-0.15234375,9.6875
28,438000000,imu1_frame,-0.01434326171875,-0.04461669921875,0.01123046875,0.9981689453125,0.0,0.0,0.0,0.765625,-0.15234375,9.6875
28,463000000,imu1_frame,-0.01434326171875,-0.04461669921875,0.01123046875,0.9981689453125,0.0,0.0,0.0,0.765625,-0.15234375,9.6875
28,488000000,imu1_frame,-0.01434326171875,-0.04461669921875,0.01123046875,0.9981689453125,0.0,0.0,0.0,0.7265625,-0.15234375,9.73046875
28,513000000,imu1_frame,-0.01434326171875,-0.04461669921875,0.01123046875,0.9981689453125,0.0,0.0,0.0,0.7265625,-0.15234375,9.73046875
28,538000000,imu1_frame,-0.01434326171875,-0.04461669921875,0.01123046875,0.9981689453125,0.0,0.0,0.0,0.7265625,-0.11328125,9.69140625
28,563000000,imu1_frame,-0.01434326171875,-0.04461669921875,0.01123046875,0.9981689453125,0.0,0.0,0.0,0.7265625,-0.11328125,9.69140625
28,588000000,imu1_frame,-0.01434326171875,-0.04461669921875,0.01123046875,0.9981689453125,0.0,0.0,0.0,0.765625,-0.15234375,9.7265625
28,613000000,imu1_frame,-0.01434326171875,-0.04461669921875,0.01123046875,0.9981689453125,0.0,0.0,0.0,0.765625,-0.15234375,9.7265625
28,638000000,imu1_frame,-0.01434326171875,-0.04461669921875,0.01123046875,0.9981689453125,0.0,0.0,0.0,0.765625,-0.15234375,9.7265625
28,663000000,imu1_frame,-0.01434326171875,-0.04461669921875,0.01123046875,0.9981689453125,0.0,0.0,0.0,0.765625,-0.15234375,9.7265625
28,688000000,imu1_frame,-0.01434326171875,-0.04461669921875,0.01123046875,0.9981689453125,0.0,0.0,0.0,0.8046875,-0.15234375,9.7265625
28,713000000,imu1_frame,-0.01434326171875,-0.04461669921875,0.01123046875,0.9981689453125,0.0,0.0,0.0,0.765625,-0.15234375,9.7265625
28,738000000,imu1_frame,-0.01434326171875,-0.04461669921875,0.01123046875,0.9981689453125,0.0,0.0,0.0,0.765625,-0.15234375,9.7265625
28,763000000,imu1_frame,-0.01434326171875,-0.04461669921875,0.01123046875,0.9981689453125,0.0,0.0,0.0,0.765625,-0.15234375,9.7265625
28,788000000,imu1_frame,-0.01434326171875,-0.04461669921875,0.01123046875,0.9981689453125,0.0,0.0,0.0,0.8046875,-0.15234375,9.7265625
28,813000000,imu1_frame,-0.01434326171875,-0.04461669921875,0.01123046875,0.9981689453125,-0.009765625,-0.015625,-0.015625,0.8046875,-0.15234375,9.7265625
28,838000000,imu1_frame,-0.01434326171875,-0.04461669921875,0.01123046875,0.9981689453125,-0.009765625,-0.015625,-0.015625,0.7265625,-0.11328125,9.73046875
28,863000000,imu1_frame,-0.01434326171875,-0.04461669921875,0.01123046875,0.9981689453125,-0.00390625,-0.00390625,-0.00390625,0.7265625,-0.11328125,9.73046875
28,888000000,imu1_frame,-0.01434326171875,-0.04461669921875,0.01123046875,0.9981689453125,-0.00390625,-0.00390625,-0.00390625,0.8046875,-0.15234375,9.7265625
28,913000000,imu1_frame,-0.01434326171875,-0.04461669921875,0.01123046875,0.9981689453125,-0.00390625,-0.00390625,-0.00390625,0.765625,-0.15234375,9.7265625
28,938000000,imu1_frame,-0.01434326171875,-0.04461669921875,0.01123046875,0.9981689453125,0.001953125,0.001953125,0.001953125,0.765625,-0.15234375,9.7265625
28,963000000,imu1_frame,-0.01434326171875,-0.04461669921875,0.01123046875,0.9981689453125,0.001953125,-0.001953125,0.00390625,0.765625,-0.15234375,9.7265625
28,988000000,imu1_frame,-0.01434326171875,-0.04461669921875,0.01123046875,0.9981689453125,0.001953125,-0.001953125,0.00390625,0.7265625,-0.15234375,9.73046875
29,13000000,imu1_frame,-0.01434326171875,-0.04461669921875,0.01123046875,0.9981689453125,0.001953125,-0.001953125,0.00390625,0.7265625,-0.15234375,9.73046875
29,38000000,imu1_frame,-0.01434326171875,-0.04461669921875,0.01123046875,0.9981689453125,0.001953125,-0.0078125,0.001953125,0.7265625,-0.15234375,9.73046875
29,63000000,imu1_frame,-0.01434326171875,-0.04461669921875,0.01123046875,0.9981689453125,-0.001953125,-0.00390625,0.00390625,0.7265625,-0.15234375,9.73046875
29,88000000,imu1_frame,-0.01434326171875,-0.04461669921875,0.01123046875,0.9981689453125,-0.001953125,-0.00390625,0.00390625,0.765625,-0.15234375,9.7265625
29,113000000,imu1_frame,-0.01434326171875,-0.04461669921875,0.01123046875,0.9981689453125,-0.00390625,-0.0078125,0.0,0.765625,-0.15234375,9.7265625
29,138000000,imu1_frame,-0.01434326171875,-0.04461669921875,0.01123046875,0.9981689453125,-0.00390625,-0.0078125,0.0,0.7265625,-0.15234375,9.73046875
29,163000000,imu1_frame,-0.01434326171875,-0.04461669921875,0.01123046875,0.9981689453125,0.001953125,-0.001953125,0.00390625,0.7265625,-0.15234375,9.73046875
29,188000000,imu1_frame,-0.01434326171875,-0.04461669921875,0.01123046875,0.9981689453125,0.001953125,-0.001953125,0.00390625,0.7265625,-0.15234375,9.73046875
29,213000000,imu1_frame,-0.01434326171875,-0.04461669921875,0.01123046875,0.9981689453125,0.001953125,-0.001953125,0.00390625,0.7265625,-0.11328125,9.69140625
29,238000000,imu1_frame,-0.01434326171875,-0.04461669921875,0.01123046875,0.9981689453125,-0.00390625,-0.013671875,0.005859375,0.7265625,-0.11328125,9.69140625
29,263000000,imu1_frame,-0.01434326171875,-0.04461669921875,0.01123046875,0.9981689453125,-0.0078125,-0.01953125,0.00390625,0.7265625,-0.11328125,9.69140625
29,288000000,imu1_frame,-0.01434326171875,-0.04461669921875,0.01123046875,0.9981689453125,-0.0078125,-0.01953125,0.00390625,0.69140625,-0.11328125,9.7265625
29,313000000,imu1_frame,-0.01434326171875,-0.04461669921875,0.01123046875,0.9981689453125,-0.0078125,-0.01953125,0.00390625,0.7265625,-0.15234375,9.73046875
29,338000000,imu1_frame,-0.01434326171875,-0.04461669921875,0.01123046875,0.9981689453125,0.0,0.001953125,0.00390625,0.7265625,-0.15234375,9.73046875
29,363000000,imu1_frame,-0.01434326171875,-0.04461669921875,0.01123046875,0.9981689453125,0.00390625,0.009765625,0.00390625,0.7265625,-0.15234375,9.73046875
29,388000000,imu1_frame,-0.01434326171875,-0.04461669921875,0.01123046875,0.9981689453125,0.00390625,0.009765625,0.00390625,0.69140625,-0.11328125,9.6875
29,413000000,imu1_frame,-0.01434326171875,-0.04461669921875,0.01123046875,0.9981689453125,0.0078125,0.009765625,0.005859375,0.69140625,-0.11328125,9.6875
29,438000000,imu1_frame,-0.01434326171875,-0.04461669921875,0.01123046875,0.9981689453125,0.001953125,0.005859375,0.00390625,0.69140625,-0.11328125,9.6875
29,463000000,imu1_frame,-0.01434326171875,-0.04461669921875,0.01123046875,0.9981689453125,-0.001953125,-0.001953125,0.005859375,0.69140625,-0.11328125,9.6875
29,488000000,imu1_frame,-0.01434326171875,-0.04461669921875,0.01123046875,0.9981689453125,-0.001953125,-0.001953125,0.005859375,0.69140625,-0.15234375,9.7265625
29,513000000,imu1_frame,-0.01434326171875,-0.04461669921875,0.01123046875,0.9981689453125,0.015625,0.02734375,0.0078125,0.69140625,-0.15234375,9.7265625
29,538000000,imu1_frame,-0.01434326171875,-0.04461669921875,0.01123046875,0.9981689453125,0.0078125,0.013671875,0.0078125,0.69140625,-0.15234375,9.7265625
29,563000000,imu1_frame,-0.01434326171875,-0.04461669921875,0.01123046875,0.9981689453125,0.00390625,0.005859375,0.00390625,0.69140625,-0.15234375,9.7265625
29,588000000,imu1_frame,-0.01434326171875,-0.04461669921875,0.01123046875,0.9981689453125,0.00390625,0.005859375,0.00390625,0.69140625,-0.15234375,9.7265625
29,613000000,imu1_frame,-0.01434326171875,-0.04461669921875,0.01123046875,0.9981689453125,0.00390625,0.005859375,0.00390625,0.69140625,-0.15234375,9.7265625
29,638000000,imu1_frame,-0.01434326171875,-0.04461669921875,0.01123046875,0.9981689453125,0.0,0.0,-0.001953125,0.69140625,-0.15234375,9.7265625
29,663000000,imu1_frame,-0.01434326171875,-0.04461669921875,0.01123046875,0.9981689453125,-0.00390625,-0.001953125,-0.001953125,0.69140625,-0.15234375,9.7265625
29,688000000,imu1_frame,-0.01434326171875,-0.04461669921875,0.01123046875,0.9981689453125,-0.00390625,-0.001953125,-0.001953125,0.69140625,-0.11328125,9.7265625
29,713000000,imu1_frame,-0.01434326171875,-0.04461669921875,0.01123046875,0.9981689453125,0.001953125,0.0,-0.001953125,0.69140625,-0.11328125,9.7265625
29,738000000,imu1_frame,-0.01434326171875,-0.04461669921875,0.01123046875,0.9981689453125,0.001953125,0.005859375,0.001953125,0.69140625,-0.11328125,9.7265625
29,763000000,imu1_frame,-0.01434326171875,-0.04461669921875,0.01123046875,0.9981689453125,0.005859375,0.0078125,0.0,0.69140625,-0.11328125,9.7265625
29,788000000,imu1_frame,-0.01434326171875,-0.04461669921875,0.01123046875,0.9981689453125,0.005859375,0.0078125,0.0,0.69140625,-0.15234375,9.76953125
29,813000000,imu1_frame,-0.01434326171875,-0.04461669921875,0.01123046875,0.9981689453125,0.005859375,0.0078125,0.0,0.69140625,-0.11328125,9.7265625
29,838000000,imu1_frame,-0.01434326171875,-0.04461669921875,0.01123046875,0.9981689453125,-0.005859375,-0.001953125,0.0,0.69140625,-0.11328125,9.7265625
29,863000000,imu1_frame,-0.01434326171875,-0.04461669921875,0.01123046875,0.9981689453125,-0.00390625,-0.005859375,-0.001953125,0.69140625,-0.11328125,9.7265625
29,890000000,imu1_frame,-0.01434326171875,-0.04461669921875,0.01123046875,0.9981689453125,-0.00390625,-0.005859375,-0.001953125,0.65234375,-0.11328125,9.73046875
29,913000000,imu1_frame,-0.01434326171875,-0.04461669921875,0.01123046875,0.9981689453125,-0.00390625,-0.005859375,-0.001953125,0.7265625,-0.11328125,9.73046875
29,938000000,imu1_frame,-0.01434326171875,-0.04461669921875,0.01123046875,0.9981689453125,-0.001953125,0.001953125,0.0,0.7265625,-0.11328125,9.73046875
29,963000000,imu1_frame,-0.01434326171875,-0.04461669921875,0.01123046875,0.9981689453125,0.001953125,0.009765625,0.0,0.7265625,-0.11328125,9.73046875
29,988000000,imu1_frame,-0.01434326171875,-0.04461669921875,0.01123046875,0.9981689453125,0.001953125,0.009765625,0.0,0.65234375,-0.11328125,9.73046875
30,13000000,imu1_frame,-0.01434326171875,-0.04461669921875,0.01123046875,0.9981689453125,0.001953125,0.005859375,-0.001953125,0.65234375,-0.11328125,9.73046875
30,38000000,imu1_frame,-0.01434326171875,-0.04461669921875,0.01123046875,0.9981689453125,-0.001953125,0.001953125,-0.00390625,0.65234375,-0.11328125,9.73046875
30,63000000,imu1_frame,-0.01434326171875,-0.04461669921875,0.01123046875,0.9981689453125,0.001953125,0.001953125,-0.001953125,0.65234375,-0.11328125,9.73046875
30,88000000,imu1_frame,-0.01434326171875,-0.04461669921875,0.01123046875,0.9981689453125,0.001953125,0.001953125,-0.001953125,0.69140625,-0.11328125,9.7265625
30,113000000,imu1_frame,-0.01434326171875,-0.04461669921875,0.01123046875,0.9981689453125,0.001953125,0.001953125,-0.001953125,0.7265625,-0.15234375,9.73046875
30,138000000,imu1_frame,-0.01434326171875,-0.04461669921875,0.01123046875,0.9981689453125,0.001953125,0.0,0.001953125,0.7265625,-0.15234375,9.73046875
30,163000000,imu1_frame,-0.01434326171875,-0.04461669921875,0.01123046875,0.9981689453125,-0.00390625,-0.001953125,0.00390625,0.7265625,-0.15234375,9.73046875
30,188000000,imu1_frame,-0.01434326171875,-0.04461669921875,0.01123046875,0.9981689453125,-0.00390625,-0.001953125,0.00390625,0.69140625,-0.15234375,9.6875
30,213000000,imu1_frame,-0.01434326171875,-0.04461669921875,0.01123046875,0.9981689453125,-0.00390625,-0.001953125,0.00390625,0.69140625,-0.15234375,9.7265625
30,238000000,imu1_frame,-0.01434326171875,-0.04461669921875,0.01123046875,0.9981689453125,0.0,-0.001953125,-0.00390625,0.69140625,-0.15234375,9.7265625
30,263000000,imu1_frame,-0.01434326171875,-0.04461669921875,0.01123046875,0.9981689453125,-0.001953125,-0.00390625,0.001953125,0.69140625,-0.15234375,9.7265625
30,288000000,imu1_frame,-0.01434326171875,-0.04461669921875,0.01123046875,0.9981689453125,-0.001953125,-0.00390625,0.001953125,0.69140625,-0.15234375,9.7265625
30,313000000,imu1_frame,-0.01434326171875,-0.04461669921875,0.01123046875,0.9981689453125,0.001953125,0.001953125,0.00390625,0.69140625,-0.15234375,9.7265625
30,338000000,imu1_frame,-0.01434326171875,-0.04461669921875,0.01123046875,0.9981689453125,0.001953125,0.0,0.001953125,0.69140625,-0.15234375,9.7265625
30,363000000,imu1_frame,-0.0067138671875,-0.0362548828125,0.013916015625,0.99920654296875,0.001953125,0.0,0.001953125,0.69140625,-0.15234375,9.7265625
30,388000000,imu1_frame,-0.0067138671875,-0.0362548828125,0.013916015625,0.99920654296875,0.001953125,0.0,0.001953125,0.69140625,-0.15234375,9.7265625
30,413000000,imu1_frame,-0.0067138671875,-0.0362548828125,0.013916015625,0.99920654296875,0.001953125,0.001953125,0.0,0.69140625,-0.15234375,9.7265625
30,438000000,imu1_frame,-0.0067138671875,-0.0362548828125,0.013916015625,0.99920654296875,0.001953125,0.001953125,-0.001953125,0.69140625,-0.15234375,9.7265625
30,463000000,imu1_frame,-0.0067138671875,-0.0362548828125,0.013916015625,0.99920654296875,0.001953125,0.001953125,-0.001953125,0.69140625,-0.11328125,9.7265625
30,488000000,imu1_frame,-0.0067138671875,-0.0362548828125,0.013916015625,0.99920654296875,0.001953125,0.001953125,-0.001953125,0.69140625,-0.15234375,9.7265625
30,513000000,imu1_frame,-0.0067138671875,-0.0362548828125,0.013916015625,0.99920654296875,0.001953125,0.001953125,-0.001953125,0.69140625,-0.15234375,9.7265625
30,538000000,imu1_frame,-0.0067138671875,-0.0362548828125,0.013916015625,0.99920654296875,-0.001953125,-0.005859375,-0.001953125,0.69140625,-0.15234375,9.7265625
30,563000000,imu1_frame,-0.006591796875,-0.035888671875,0.013916015625,0.99920654296875,-0.001953125,-0.005859375,-0.001953125,0.69140625,-0.15234375,9.7265625
30,588000000,imu1_frame,-0.006591796875,-0.035888671875,0.013916015625,0.99920654296875,-0.001953125,-0.005859375,-0.001953125,0.69140625,-0.15234375,9.7265625
30,613000000,imu1_frame,-0.006591796875,-0.035888671875,0.013916015625,0.99920654296875,0.001953125,0.001953125,-0.001953125,0.69140625,-0.15234375,9.7265625
30,638000000,imu1_frame,-0.006591796875,-0.035888671875,0.013916015625,0.99920654296875,0.00390625,0.00390625,0.0,0.69140625,-0.15234375,9.7265625
30,663000000,imu1_frame,-0.0064697265625,-0.0357666015625,0.01385498046875,0.999267578125,0.00390625,0.00390625,0.0,0.69140625,-0.15234375,9.7265625
30,688000000,imu1_frame,-0.0064697265625,-0.0357666015625,0.01385498046875,0.999267578125,0.00390625,0.00390625,0.0,0.69140625,-0.11328125,9.7265625
30,713000000,imu1_frame,-0.0064697265625,-0.0357666015625,0.01385498046875,0.999267578125,0.00390625,0.009765625,0.0,0.69140625,-0.11328125,9.7265625
30,738000000,imu1_frame,-0.0064697265625,-0.0357666015625,0.01385498046875,0.999267578125,0.005859375,0.01171875,0.00390625,0.69140625,-0.11328125,9.7265625
30,763000000,imu1_frame,-0.0064697265625,-0.0357666015625,0.01385498046875,0.999267578125,0.005859375,0.01171875,0.00390625,0.65234375,-0.15234375,9.73046875
30,788000000,imu1_frame,-0.0064697265625,-0.0357666015625,0.01385498046875,0.999267578125,0.005859375,0.01171875,0.00390625,0.69140625,-0.11328125,9.7265625
30,813000000,imu1_frame,-0.0064697265625,-0.0357666015625,0.01385498046875,0.999267578125,0.005859375,0.01171875,0.00390625,0.69140625,-0.11328125,9.7265625
30,838000000,imu1_frame,-0.0064697265625,-0.0357666015625,0.01385498046875,0.999267578125,-0.001953125,-0.001953125,0.0,0.69140625,-0.11328125,9.7265625
30,863000000,imu1_frame,-0.00628662109375,-0.035400390625,0.01385498046875,0.999267578125,-0.001953125,-0.001953125,0.0,0.69140625,-0.11328125,9.7265625
30,888000000,imu1_frame,-0.00628662109375,-0.035400390625,0.01385498046875,0.999267578125,-0.001953125,-0.001953125,0.0,0.7265625,-0.11328125,9.73046875
30,913000000,imu1_frame,-0.00628662109375,-0.035400390625,0.01385498046875,0.999267578125,-0.001953125,-0.001953125,0.0,0.7265625,-0.11328125,9.73046875
30,938000000,imu1_frame,-0.00628662109375,-0.035400390625,0.01385498046875,0.999267578125,0.001953125,0.00390625,-0.001953125,0.7265625,-0.11328125,9.73046875
30,963000000,imu1_frame,-0.00628662109375,-0.035400390625,0.01385498046875,0.999267578125,0.001953125,0.00390625,-0.001953125,0.7265625,-0.11328125,9.73046875
30,988000000,imu1_frame,-0.00628662109375,-0.035400390625,0.01385498046875,0.999267578125,0.001953125,0.00390625,-0.001953125,0.7265625,-0.11328125,9.73046875
31,13000000,imu1_frame,-0.00628662109375,-0.035400390625,0.01385498046875,0.999267578125,0.00390625,0.0,0.0,0.7265625,-0.11328125,9.73046875
31,38000000,imu1_frame,-0.00628662109375,-0.035400390625,0.01385498046875,0.999267578125,-0.001953125,-0.001953125,0.0,0.7265625,-0.11328125,9.73046875
31,63000000,imu1_frame,-0.00628662109375,-0.035400390625,0.01385498046875,0.999267578125,-0.001953125,-0.001953125,0.0,0.7265625,-0.11328125,9.73046875
31,88000000,imu1_frame,-0.00628662109375,-0.035400390625,0.01385498046875,0.999267578125,-0.001953125,-0.001953125,0.0,0.7265625,-0.11328125,9.73046875
31,113000000,imu1_frame,-0.00628662109375,-0.035400390625,0.01385498046875,0.999267578125,-0.001953125,-0.001953125,0.0,0.7265625,-0.15234375,9.73046875
31,138000000,imu1_frame,-0.00628662109375,-0.035400390625,0.01385498046875,0.999267578125,0.001953125,0.0078125,-0.001953125,0.7265625,-0.15234375,9.73046875
31,163000000,imu1_frame,-0.00628662109375,-0.035400390625,0.01385498046875,0.999267578125,0.001953125,0.0078125,-0.001953125,0.7265625,-0.11328125,9.73046875
31,188000000,imu1_frame,-0.00628662109375,-0.035400390625,0.01385498046875,0.999267578125,0.001953125,0.0078125,-0.001953125,0.69140625,-0.11328125,9.7265625
31,213000000,imu1_frame,-0.00628662109375,-0.035400390625,0.01385498046875,0.999267578125,0.001953125,0.0078125,-0.001953125,0.7265625,-0.11328125,9.73046875
31,238000000,imu1_frame,-0.00628662109375,-0.035400390625,0.01385498046875,0.999267578125,-0.001953125,-0.001953125,-0.001953125,0.7265625,-0.11328125,9.73046875
31,263000000,imu1_frame,-0.00628662109375,-0.035400390625,0.01385498046875,0.999267578125,-0.001953125,-0.001953125,-0.001953125,0.7265625,-0.11328125,9.73046875
31,288000000,imu1_frame,-0.00628662109375,-0.035400390625,0.01385498046875,0.999267578125,-0.001953125,-0.001953125,-0.001953125,0.7265625,-0.15234375,9.73046875
31,313000000,imu1_frame,-0.00628662109375,-0.035400390625,0.01385498046875,0.999267578125,0.0078125,0.005859375,0.0,0.7265625,-0.15234375,9.73046875
31,338000000,imu1_frame,-0.00628662109375,-0.035400390625,0.01385498046875,0.999267578125,0.00390625,0.009765625,0.0,0.7265625,-0.15234375,9.73046875
31,363000000,imu1_frame,-0.00628662109375,-0.035400390625,0.01385498046875,0.999267578125,0.00390625,0.009765625,0.0,0.69140625,-0.11328125,9.7265625
31,388000000,imu1_frame,-0.00628662109375,-0.035400390625,0.01385498046875,0.999267578125,-0.00390625,-0.01171875,0.0,0.69140625,-0.11328125,9.7265625
31,413000000,imu1_frame,-0.00628662109375,-0.035400390625,0.01385498046875,0.999267578125,-0.00390625,-0.01171875,0.0,0.69140625,-0.15234375,9.7265625
31,438000000,imu1_frame,-0.00628662109375,-0.035400390625,0.01385498046875,0.999267578125,0.009765625,0.015625,-0.00390625,0.69140625,-0.15234375,9.7265625
31,463000000,imu1_frame,-0.00628662109375,-0.035400390625,0.01385498046875,0.999267578125,0.009765625,0.015625,-0.00390625,0.69140625,-0.11328125,9.7265625
31,488000000,imu1_frame,-0.00628662109375,-0.035400390625,0.01385498046875,0.999267578125,0.009765625,0.015625,-0.00390625,0.69140625,-0.11328125,9.6875
31,513000000,imu1_frame,-0.00628662109375,-0.035400390625,0.01385498046875,0.999267578125,0.009765625,0.015625,-0.00390625,0.65234375,-0.11328125,9.73046875
31,538000000,imu1_frame,-0.00628662109375,-0.035400390625,0.01385498046875,0.999267578125,0.005859375,0.001953125,-0.001953125,0.65234375,-0.11328125,9.73046875
31,563000000,imu1_frame,-0.00628662109375,-0.035400390625,0.01385498046875,0.999267578125,0.005859375,0.001953125,-0.001953125,0.69140625,-0.11328125,9.7265625
31,588000000,imu1_frame,-0.00628662109375,-0.035400390625,0.01385498046875,0.999267578125,0.005859375,0.001953125,-0.001953125,0.69140625,-0.11328125,9.6875
31,613000000,imu1_frame,-0.00628662109375,-0.035400390625,0.01385498046875,0.999267578125,0.0,-0.005859375,-0.001953125,0.69140625,-0.11328125,9.6875
31,638000000,imu1_frame,-0.00628662109375,-0.035400390625,0.01385498046875,0.999267578125,0.001953125,-0.005859375,-0.001953125,0.69140625,-0.11328125,9.6875
31,663000000,imu1_frame,-0.00628662109375,-0.035400390625,0.01385498046875,0.999267578125,0.001953125,-0.005859375,-0.001953125,0.7265625,-0.11328125,9.73046875
31,688000000,imu1_frame,-0.00628662109375,-0.035400390625,0.01385498046875,0.999267578125,0.001953125,-0.0078125,-0.001953125,0.7265625,-0.11328125,9.73046875
31,713000000,imu1_frame,-0.00628662109375,-0.035400390625,0.01385498046875,0.999267578125,0.001953125,-0.0078125,-0.001953125,0.65234375,-0.11328125,9.73046875
31,738000000,imu1_frame,-0.00628662109375,-0.035400390625,0.01385498046875,0.999267578125,-0.001953125,-0.001953125,-0.001953125,0.65234375,-0.11328125,9.73046875
31,763000000,imu1_frame,-0.00628662109375,-0.035400390625,0.01385498046875,0.999267578125,-0.001953125,-0.001953125,-0.001953125,0.7265625,-0.11328125,9.73046875
31,788000000,imu1_frame,-0.00628662109375,-0.035400390625,0.01385498046875,0.999267578125,-0.001953125,-0.001953125,-0.001953125,0.69140625,-0.11328125,9.7265625
31,813000000,imu1_frame,-0.00628662109375,-0.035400390625,0.01385498046875,0.999267578125,-0.001953125,-0.001953125,-0.001953125,0.69140625,-0.11328125,9.7265625
31,838000000,imu1_frame,-0.00628662109375,-0.035400390625,0.01385498046875,0.999267578125,0.0,-0.0078125,0.001953125,0.69140625,-0.11328125,9.7265625
31,863000000,imu1_frame,-0.00628662109375,-0.035400390625,0.01385498046875,0.999267578125,0.0,-0.0078125,0.001953125,0.69140625,-0.11328125,9.7265625
31,891000000,imu1_frame,-0.00628662109375,-0.035400390625,0.01385498046875,0.999267578125,0.0,-0.0078125,0.001953125,0.65234375,-0.11328125,9.73046875
31,913000000,imu1_frame,-0.00628662109375,-0.035400390625,0.01385498046875,0.999267578125,0.00390625,0.001953125,0.0,0.65234375,-0.11328125,9.73046875
31,938000000,imu1_frame,-0.00628662109375,-0.035400390625,0.01385498046875,0.999267578125,0.0,-0.001953125,0.0,0.65234375,-0.11328125,9.73046875
31,963000000,imu1_frame,-0.00628662109375,-0.035400390625,0.01385498046875,0.999267578125,0.0,-0.001953125,0.0,0.69140625,-0.11328125,9.7265625
31,988000000,imu1_frame,-0.00628662109375,-0.035400390625,0.01385498046875,0.999267578125,0.001953125,0.0,-0.001953125,0.69140625,-0.11328125,9.7265625
32,13000000,imu1_frame,-0.00628662109375,-0.035400390625,0.01385498046875,0.999267578125,0.001953125,0.0,-0.001953125,0.69140625,-0.11328125,9.7265625
32,38000000,imu1_frame,-0.00628662109375,-0.035400390625,0.01385498046875,0.999267578125,-0.00390625,-0.009765625,-0.001953125,0.69140625,-0.11328125,9.7265625
32,63000000,imu1_frame,-0.00628662109375,-0.035400390625,0.01385498046875,0.999267578125,-0.00390625,-0.009765625,-0.001953125,0.69140625,-0.11328125,9.7265625
32,88000000,imu1_frame,-0.00628662109375,-0.035400390625,0.01385498046875,0.999267578125,-0.00390625,-0.009765625,-0.001953125,0.69140625,-0.11328125,9.7265625
32,113000000,imu1_frame,-0.00628662109375,-0.035400390625,0.01385498046875,0.999267578125,-0.00390625,-0.009765625,-0.001953125,0.69140625,-0.11328125,9.6875
32,138000000,imu1_frame,-0.00628662109375,-0.035400390625,0.01385498046875,0.999267578125,0.0,0.0,0.0,0.69140625,-0.11328125,9.6875
32,163000000,imu1_frame,-0.00628662109375,-0.035400390625,0.01385498046875,0.999267578125,0.0,0.0,0.0,0.69140625,-0.11328125,9.7265625
32,188000000,imu1_frame,-0.00628662109375,-0.035400390625,0.01385498046875,0.999267578125,0.0,0.0,0.0,0.69140625,-0.11328125,9.76953125
32,213000000,imu1_frame,-0.00628662109375,-0.035400390625,0.01385498046875,0.999267578125,0.001953125,0.005859375,0.001953125,0.69140625,-0.11328125,9.76953125
32,238000000,imu1_frame,-0.00628662109375,-0.035400390625,0.01385498046875,0.999267578125,-0.001953125,0.0,0.001953125,0.69140625,-0.11328125,9.76953125
32,263000000,imu1_frame,-0.00628662109375,-0.035400390625,0.01385498046875,0.999267578125,-0.001953125,0.0,0.001953125,0.69140625,-0.11328125,9.7265625
32,288000000,imu1_frame,-0.00628662109375,-0.035400390625,0.01385498046875,0.999267578125,0.00390625,0.0078125,-0.001953125,0.69140625,-0.11328125,9.7265625
32,313000000,imu1_frame,-0.00628662109375,-0.035400390625,0.01385498046875,0.999267578125,0.00390625,0.0078125,-0.001953125,0.65234375,-0.11328125,9.73046875
32,338000000,imu1_frame,-0.00628662109375,-0.035400390625,0.01385498046875,0.999267578125,-0.001953125,0.001953125,-0.001953125,0.65234375,-0.11328125,9.73046875
32,363000000,imu1_frame,-0.00628662109375,-0.035400390625,0.01385498046875,0.999267578125,-0.001953125,0.001953125,-0.001953125,0.69140625,-0.11328125,9.7265625
32,388000000,imu1_frame,-0.00628662109375,-0.035400390625,0.01385498046875,0.999267578125,-0.001953125,0.001953125,-0.001953125,0.69140625,-0.15234375,9.7265625
32,413000000,imu1_frame,-0.00628662109375,-0.035400390625,0.01385498046875,0.999267578125,-0.001953125,0.001953125,-0.001953125,0.69140625,-0.11328125,9.7265625
32,438000000,imu1_frame,-0.00628662109375,-0.035400390625,0.01385498046875,0.999267578125,0.0,0.0,-0.001953125,0.69140625,-0.11328125,9.7265625
32,463000000,imu1_frame,-0.00628662109375,-0.035400390625,0.01385498046875,0.999267578125,0.0,0.0,-0.001953125,0.69140625,-0.11328125,9.7265625
32,488000000,imu1_frame,-0.00628662109375,-0.035400390625,0.01385498046875,0.999267578125,0.0,0.0,-0.001953125,0.69140625,-0.11328125,9.7265625
32,513000000,imu1_frame,-0.00628662109375,-0.035400390625,0.01385498046875,0.999267578125,-0.00390625,-0.0078125,-0.001953125,0.69140625,-0.11328125,9.7265625
32,538000000,imu1_frame,-0.00628662109375,-0.035400390625,0.01385498046875,0.999267578125,-0.001953125,-0.01171875,-0.001953125,0.69140625,-0.11328125,9.7265625
32,563000000,imu1_frame,-0.00628662109375,-0.035400390625,0.01385498046875,0.999267578125,-0.001953125,-0.01171875,-0.001953125,0.69140625,-0.15234375,9.7265625
32,588000000,imu1_frame,-0.00628662109375,-0.035400390625,0.01385498046875,0.999267578125,0.029296875,0.07421875,-0.013671875,0.69140625,-0.15234375,9.7265625
32,613000000,imu1_frame,-0.00628662109375,-0.035400390625,0.01385498046875,0.999267578125,0.029296875,0.07421875,-0.013671875,0.65234375,-0.078125,9.69140625
32,638000000,imu1_frame,-0.00628662109375,-0.035400390625,0.01385498046875,0.999267578125,0.005859375,0.013671875,-0.001953125,0.65234375,-0.078125,9.69140625
32,663000000,imu1_frame,-0.00628662109375,-0.035400390625,0.01385498046875,0.999267578125,0.005859375,0.013671875,-0.001953125,0.69140625,-0.15234375,9.7265625
32,688000000,imu1_frame,-0.00628662109375,-0.035400390625,0.01385498046875,0.999267578125,0.005859375,0.013671875,-0.001953125,0.7265625,-0.0390625,9.73046875
32,713000000,imu1_frame,-0.00628662109375,-0.035400390625,0.01385498046875,0.999267578125,0.005859375,0.013671875,-0.001953125,0.7265625,-0.078125,9.73046875
32,738000000,imu1_frame,-0.00628662109375,-0.035400390625,0.01385498046875,0.999267578125,-0.0078125,-0.02734375,0.00390625,0.7265625,-0.078125,9.73046875
32,763000000,imu1_frame,-0.00628662109375,-0.035400390625,0.01385498046875,0.999267578125,-0.0078125,-0.02734375,0.00390625,0.69140625,-0.078125,9.7265625
32,788000000,imu1_frame,-0.00628662109375,-0.035400390625,0.01385498046875,0.999267578125,-0.0078125,-0.02734375,0.00390625,0.7265625,-0.078125,9.73046875
32,813000000,imu1_frame,-0.00628662109375,-0.035400390625,0.01385498046875,0.999267578125,-0.001953125,-0.001953125,0.0,0.7265625,-0.078125,9.73046875
32,838000000,imu1_frame,-0.00628662109375,-0.035400390625,0.01385498046875,0.999267578125,-0.001953125,0.0,0.001953125,0.7265625,-0.078125,9.73046875
32,863000000,imu1_frame,-0.00628662109375,-0.035400390625,0.01385498046875,0.999267578125,-0.001953125,0.0,0.001953125,0.7265625,-0.078125,9.73046875
32,888000000,imu1_frame,-0.00628662109375,-0.035400390625,0.01385498046875,0.999267578125,-0.001953125,0.001953125,-0.001953125,0.7265625,-0.078125,9.73046875
32,913000000,imu1_frame,-0.00628662109375,-0.035400390625,0.01385498046875,0.999267578125,-0.001953125,0.001953125,-0.001953125,0.69140625,-0.15234375,9.7265625
32,938000000,imu1_frame,-0.00628662109375,-0.035400390625,0.01385498046875,0.999267578125,-0.005859375,-0.01171875,-0.00390625,0.69140625,-0.15234375,9.7265625
32,963000000,imu1_frame,-0.00628662109375,-0.035400390625,0.01385498046875,0.999267578125,-0.005859375,-0.01171875,-0.00390625,0.7265625,-0.078125,9.73046875
32,988000000,imu1_frame,-0.00628662109375,-0.035400390625,0.01385498046875,0.999267578125,-0.005859375,-0.01171875,-0.00390625,0.69140625,-0.15234375,9.7265625
33,13000000,imu1_frame,-0.00628662109375,-0.035400390625,0.01385498046875,0.999267578125,0.001953125,0.009765625,-0.00390625,0.69140625,-0.15234375,9.7265625
33,38000000,imu1_frame,-0.00628662109375,-0.035400390625,0.01385498046875,0.999267578125,0.001953125,0.00390625,0.0,0.69140625,-0.15234375,9.7265625
33,63000000,imu1_frame,-0.00628662109375,-0.035400390625,0.01385498046875,0.999267578125,0.001953125,0.00390625,0.0,0.69140625,-0.11328125,9.7265625
33,88000000,imu1_frame,-0.00628662109375,-0.035400390625,0.01385498046875,0.999267578125,0.001953125,0.00390625,0.0,0.69140625,-0.15234375,9.7265625
33,113000000,imu1_frame,-0.00628662109375,-0.035400390625,0.01385498046875,0.999267578125,0.001953125,-0.001953125,0.001953125,0.69140625,-0.15234375,9.7265625
33,138000000,imu1_frame,-0.00628662109375,-0.035400390625,0.01385498046875,0.999267578125,-0.001953125,-0.01171875,0.001953125,0.69140625,-0.15234375,9.7265625
33,163000000,imu1_frame,-0.00628662109375,-0.035400390625,0.01385498046875,0.999267578125,-0.001953125,-0.01171875,0.001953125,0.69140625,-0.11328125,9.7265625
33,188000000,imu1_frame,-0.00628662109375,-0.035400390625,0.01385498046875,0.999267578125,0.00390625,0.009765625,-0.001953125,0.69140625,-0.11328125,9.7265625
33,213000000,imu1_frame,-0.00628662109375,-0.035400390625,0.01385498046875,0.999267578125,0.00390625,0.009765625,-0.001953125,0.65234375,-0.11328125,9.73046875
33,238000000,imu1_frame,-0.00628662109375,-0.035400390625,0.01385498046875,0.999267578125,-0.001953125,-0.001953125,-0.00390625,0.65234375,-0.11328125,9.73046875
33,263000000,imu1_frame,-0.00628662109375,-0.035400390625,0.01385498046875,0.999267578125,-0.001953125,-0.001953125,-0.00390625,0.7265625,-0.11328125,9.73046875
33,288000000,imu1_frame,-0.00628662109375,-0.035400390625,0.01385498046875,0.999267578125,-0.001953125,-0.001953125,-0.00390625,0.65234375,-0.15234375,9.765625
33,313000000,imu1_frame,-0.00628662109375,-0.035400390625,0.01385498046875,0.999267578125,0.001953125,0.001953125,0.0,0.65234375,-0.15234375,9.765625
33,338000000,imu1_frame,-0.00628662109375,-0.035400390625,0.01385498046875,0.999267578125,0.0,0.0,-0.001953125,0.65234375,-0.15234375,9.765625
33,363000000,imu1_frame,-0.00628662109375,-0.035400390625,0.01385498046875,0.999267578125,0.0,0.0,-0.001953125,0.7265625,-0.11328125,9.73046875
33,388000000,imu1_frame,-0.00628662109375,-0.035400390625,0.01385498046875,0.999267578125,0.0,0.0,-0.001953125,0.65234375,-0.11328125,9.73046875
33,413000000,imu1_frame,-0.00628662109375,-0.035400390625,0.01385498046875,0.999267578125,0.00390625,-0.005859375,-0.001953125,0.65234375,-0.11328125,9.73046875
33,438000000,imu1_frame,-0.00628662109375,-0.035400390625,0.01385498046875,0.999267578125,0.00390625,-0.005859375,-0.001953125,0.7265625,-0.078125,9.73046875
33,463000000,imu1_frame,-0.00628662109375,-0.035400390625,0.01385498046875,0.999267578125,0.00390625,-0.005859375,-0.001953125,0.69140625,-0.15234375,9.7265625
33,488000000,imu1_frame,-0.00628662109375,-0.035400390625,0.01385498046875,0.999267578125,0.0,-0.005859375,-0.001953125,0.69140625,-0.15234375,9.7265625
33,513000000,imu1_frame,-0.00628662109375,-0.035400390625,0.01385498046875,0.999267578125,0.0,-0.005859375,-0.001953125,0.69140625,-0.11328125,9.7265625
33,538000000,imu1_frame,-0.00628662109375,-0.035400390625,0.01385498046875,0.999267578125,-0.00390625,0.0,-0.001953125,0.69140625,-0.11328125,9.7265625
33,563000000,imu1_frame,-0.00628662109375,-0.035400390625,0.01385498046875,0.999267578125,-0.00390625,0.0,-0.001953125,0.69140625,-0.15234375,9.7265625
33,588000000,imu1_frame,-0.00628662109375,-0.035400390625,0.01385498046875,0.999267578125,-0.00390625,0.0,-0.001953125,0.69140625,-0.11328125,9.7265625
33,613000000,imu1_frame,-0.00628662109375,-0.035400390625,0.01385498046875,0.999267578125,-0.00390625,-0.0078125,0.00390625,0.69140625,-0.11328125,9.7265625
33,638000000,imu1_frame,-0.00628662109375,-0.035400390625,0.01385498046875,0.999267578125,-0.001953125,0.001953125,-0.001953125,0.69140625,-0.11328125,9.7265625
33,663000000,imu1_frame,-0.00628662109375,-0.035400390625,0.01385498046875,0.999267578125,-0.001953125,0.001953125,-0.001953125,0.69140625,-0.15234375,9.7265625
33,688000000,imu1_frame,-0.00628662109375,-0.035400390625,0.01385498046875,0.999267578125,-0.001953125,0.001953125,-0.001953125,0.69140625,-0.078125,9.7265625
33,713000000,imu1_frame,-0.00628662109375,-0.035400390625,0.01385498046875,0.999267578125,0.00390625,0.00390625,0.0,0.69140625,-0.078125,9.7265625
33,738000000,imu1_frame,-0.00628662109375,-0.035400390625,0.01385498046875,0.999267578125,0.001953125,0.013671875,-0.00390625,0.69140625,-0.078125,9.7265625
33,763000000,imu1_frame,-0.00628662109375,-0.035400390625,0.01385498046875,0.999267578125,0.001953125,0.013671875,-0.00390625,0.65234375,-0.15234375,9.73046875
33,788000000,imu1_frame,-0.00628662109375,-0.035400390625,0.01385498046875,0.999267578125,0.005859375,0.0078125,0.001953125,0.65234375,-0.15234375,9.73046875
33,813000000,imu1_frame,-0.00628662109375,-0.035400390625,0.01385498046875,0.999267578125,0.005859375,0.0078125,0.001953125,0.7265625,-0.11328125,9.73046875
33,838000000,imu1_frame,-0.00628662109375,-0.035400390625,0.01385498046875,0.999267578125,0.005859375,0.009765625,-0.001953125,0.7265625,-0.11328125,9.73046875
33,863000000,imu1_frame,-0.00628662109375,-0.035400390625,0.01385498046875,0.999267578125,0.005859375,0.009765625,-0.001953125,0.69140625,-0.11328125,9.7265625
33,892000000,imu1_frame,-0.00628662109375,-0.035400390625,0.01385498046875,0.999267578125,0.005859375,0.009765625,-0.001953125,0.69140625,-0.078125,9.7265625
33,913000000,imu1_frame,-0.00628662109375,-0.035400390625,0.01385498046875,0.999267578125,-0.001953125,-0.001953125,0.0,0.69140625,-0.078125,9.7265625
33,938000000,imu1_frame,-0.00628662109375,-0.035400390625,0.01385498046875,0.999267578125,-0.001953125,-0.001953125,0.0,0.69140625,-0.15234375,9.7265625
33,963000000,imu1_frame,-0.00628662109375,-0.035400390625,0.01385498046875,0.999267578125,-0.001953125,-0.001953125,0.0,0.69140625,-0.078125,9.7265625
33,988000000,imu1_frame,-0.00628662109375,-0.035400390625,0.01385498046875,0.999267578125,-0.001953125,-0.001953125,0.0,0.69140625,-0.078125,9.7265625
34,13000000,imu1_frame,-0.00628662109375,-0.035400390625,0.01385498046875,0.999267578125,-0.00390625,-0.001953125,-0.001953125,0.69140625,-0.078125,9.7265625
34,38000000,imu1_frame,-0.00628662109375,-0.035400390625,0.01385498046875,0.999267578125,0.00390625,0.00390625,-0.001953125,0.69140625,-0.078125,9.7265625
34,63000000,imu1_frame,-0.00628662109375,-0.035400390625,0.01385498046875,0.999267578125,0.00390625,0.00390625,-0.001953125,0.69140625,-0.078125,9.6875
34,88000000,imu1_frame,-0.00628662109375,-0.035400390625,0.01385498046875,0.999267578125,-0.005859375,-0.0078125,-0.001953125,0.69140625,-0.078125,9.6875
34,113000000,imu1_frame,-0.00628662109375,-0.035400390625,0.01385498046875,0.999267578125,-0.005859375,-0.0078125,-0.001953125,0.69140625,-0.15234375,9.7265625
34,138000000,imu1_frame,-0.00628662109375,-0.035400390625,0.01385498046875,0.999267578125,-0.001953125,-0.01171875,-0.001953125,0.69140625,-0.15234375,9.7265625
34,163000000,imu1_frame,-0.00628662109375,-0.035400390625,0.01385498046875,0.999267578125,-0.001953125,-0.01171875,-0.001953125,0.69140625,-0.078125,9.7265625
34,188000000,imu1_frame,-0.00628662109375,-0.035400390625,0.01385498046875,0.999267578125,-0.001953125,-0.01171875,-0.001953125,0.69140625,-0.15234375,9.7265625
34,213000000,imu1_frame,-0.00628662109375,-0.035400390625,0.01385498046875,0.999267578125,-0.0078125,-0.0078125,0.001953125,0.69140625,-0.15234375,9.7265625
34,238000000,imu1_frame,-0.00628662109375,-0.035400390625,0.01385498046875,0.999267578125,0.00390625,0.00390625,-0.00390625,0.69140625,-0.15234375,9.7265625
34,263000000,imu1_frame,-0.00628662109375,-0.035400390625,0.01385498046875,0.999267578125,0.00390625,0.00390625,-0.00390625,0.69140625,-0.11328125,9.7265625
34,288000000,imu1_frame,-0.00628662109375,-0.035400390625,0.01385498046875,0.999267578125,0.00390625,0.00390625,-0.00390625,0.69140625,-0.15234375,9.7265625
34,313000000,imu1_frame,-0.00628662109375,-0.035400390625,0.01385498046875,0.999267578125,-0.001953125,-0.001953125,-0.001953125,0.69140625,-0.15234375,9.7265625
34,338000000,imu1_frame,-0.00628662109375,-0.035400390625,0.01385498046875,0.999267578125,-0.001953125,-0.0078125,0.001953125,0.69140625,-0.15234375,9.7265625
34,363000000,imu1_frame,-0.00628662109375,-0.035400390625,0.01385498046875,0.999267578125,-0.001953125,-0.0078125,0.001953125,0.69140625,-0.11328125,9.76953125
34,388000000,imu1_frame,-0.00628662109375,-0.035400390625,0.01385498046875,0.999267578125,0.0,0.0,-0.001953125,0.69140625,-0.11328125,9.76953125
34,413000000,imu1_frame,-0.00628662109375,-0.035400390625,0.01385498046875,0.999267578125,0.0,0.0,-0.001953125,0.69140625,-0.11328125,9.7265625
34,438000000,imu1_frame,-0.00628662109375,-0.035400390625,0.01385498046875,0.999267578125,-0.001953125,-0.005859375,0.001953125,0.69140625,-0.11328125,9.7265625
34,463000000,imu1_frame,-0.00628662109375,-0.035400390625,0.01385498046875,0.999267578125,-0.001953125,-0.005859375,0.001953125,0.69140625,-0.15234375,9.76953125
34,488000000,imu1_frame,-0.00628662109375,-0.035400390625,0.01385498046875,0.999267578125,-0.001953125,-0.005859375,0.001953125,0.69140625,-0.11328125,9.7265625
34,513000000,imu1_frame,-0.00628662109375,-0.035400390625,0.01385498046875,0.999267578125,0.005859375,0.01171875,0.001953125,0.69140625,-0.11328125,9.7265625
34,538000000,imu1_frame,-0.00628662109375,-0.035400390625,0.01385498046875,0.999267578125,0.0,0.00390625,0.001953125,0.69140625,-0.11328125,9.7265625
34,563000000,imu1_frame,-0.00628662109375,-0.035400390625,0.01385498046875,0.999267578125,0.0,0.00390625,0.001953125,0.65234375,-0.15234375,9.73046875
34,588000000,imu1_frame,-0.00628662109375,-0.035400390625,0.01385498046875,0.999267578125,0.0,0.00390625,0.001953125,0.69140625,-0.11328125,9.7265625
34,613000000,imu1_frame,-0.00628662109375,-0.035400390625,0.01385498046875,0.999267578125,-0.001953125,0.0,-0.001953125,0.69140625,-0.11328125,9.7265625
34,638000000,imu1_frame,-0.00628662109375,-0.035400390625,0.01385498046875,0.999267578125,0.001953125,-0.00390625,-0.001953125,0.69140625,-0.11328125,9.7265625
34,663000000,imu1_frame,-0.00628662109375,-0.035400390625,0.01385498046875,0.999267578125,0.001953125,-0.00390625,-0.001953125,0.69140625,-0.11328125,9.7265625
34,688000000,imu1_frame,-0.00628662109375,-0.035400390625,0.01385498046875,0.999267578125,-0.001953125,0.001953125,-0.001953125,0.69140625,-0.11328125,9.7265625
34,713000000,imu1_frame,-0.00628662109375,-0.035400390625,0.01385498046875,0.999267578125,-0.001953125,0.001953125,-0.001953125,0.69140625,-0.078125,9.7265625
34,738000000,imu1_frame,-0.00628662109375,-0.035400390625,0.01385498046875,0.999267578125,-0.001953125,-0.00390625,0.0,0.69140625,-0.078125,9.7265625
34,763000000,imu1_frame,-0.00628662109375,-0.035400390625,0.01385498046875,0.999267578125,-0.001953125,-0.00390625,0.0,0.69140625,-0.11328125,9.7265625
34,788000000,imu1_frame,-0.00628662109375,-0.035400390625,0.01385498046875,0.999267578125,-0.001953125,-0.00390625,0.0,0.69140625,-0.078125,9.7265625
34,813000000,imu1_frame,-0.00628662109375,-0.035400390625,0.01385498046875,0.999267578125,-0.001953125,-0.00390625,-0.005859375,0.69140625,-0.078125,9.7265625
34,838000000,imu1_frame,-0.00628662109375,-0.035400390625,0.01385498046875,0.999267578125,-0.01171875,-0.025390625,0.001953125,0.69140625,-0.078125,9.7265625
34,863000000,imu1_frame,-0.00628662109375,-0.035400390625,0.01385498046875,0.999267578125,-0.01171875,-0.025390625,0.001953125,0.69140625,-0.11328125,9.7265625
34,888000000,imu1_frame,-0.00628662109375,-0.035400390625,0.01385498046875,0.999267578125,-0.01171875,-0.025390625,0.001953125,0.69140625,-0.11328125,9.7265625
34,913000000,imu1_frame,-0.00628662109375,-0.035400390625,0.01385498046875,0.999267578125,-0.005859375,-0.015625,-0.0078125,0.69140625,-0.11328125,9.7265625
34,938000000,imu1_frame,-0.00628662109375,-0.035400390625,0.01385498046875,0.999267578125,-0.001953125,0.001953125,-0.013671875,0.69140625,-0.11328125,9.7265625
34,963000000,imu1_frame,-0.00628662109375,-0.035400390625,0.01385498046875,0.999267578125,-0.001953125,0.001953125,-0.013671875,0.69140625,-0.11328125,9.7265625
34,988000000,imu1_frame,-0.00628662109375,-0.035400390625,0.01385498046875,0.999267578125,-0.001953125,-0.0078125,0.001953125,0.69140625,-0.11328125,9.7265625
35,13000000,imu1_frame,-0.00628662109375,-0.035400390625,0.01385498046875,0.999267578125,-0.001953125,-0.0078125,0.001953125,0.7265625,-0.11328125,9.765625
35,38000000,imu1_frame,-0.00628662109375,-0.035400390625,0.01385498046875,0.999267578125,0.00390625,0.00390625,-0.001953125,0.7265625,-0.11328125,9.765625
35,63000000,imu1_frame,-0.00628662109375,-0.035400390625,0.01385498046875,0.999267578125,0.00390625,0.00390625,-0.001953125,0.69140625,-0.11328125,9.7265625
35,88000000,imu1_frame,-0.00628662109375,-0.035400390625,0.01385498046875,0.999267578125,0.00390625,0.00390625,-0.001953125,0.69140625,-0.11328125,9.7265625
35,113000000,imu1_frame,-0.00628662109375,-0.035400390625,0.01385498046875,0.999267578125,0.005859375,0.0,-0.001953125,0.69140625,-0.11328125,9.7265625
35,138000000,imu1_frame,-0.00628662109375,-0.035400390625,0.01385498046875,0.999267578125,-0.001953125,-0.00390625,0.001953125,0.69140625,-0.11328125,9.7265625
35,163000000,imu1_frame,-0.00628662109375,-0.035400390625,0.01385498046875,0.999267578125,-0.001953125,-0.00390625,0.001953125,0.69140625,-0.11328125,9.7265625
35,188000000,imu1_frame,-0.00628662109375,-0.035400390625,0.01385498046875,0.999267578125,-0.001953125,-0.00390625,0.001953125,0.69140625,-0.11328125,9.7265625
35,213000000,imu1_frame,-0.00628662109375,-0.035400390625,0.01385498046875,0.999267578125,-0.013671875,-0.025390625,0.00390625,0.69140625,-0.11328125,9.7265625
35,238000000,imu1_frame,-0.00628662109375,-0.035400390625,0.01385498046875,0.999267578125,-0.005859375,-0.0234375,0.001953125,0.69140625,-0.11328125,9.7265625
35,263000000,imu1_frame,-0.00628662109375,-0.035400390625,0.01385498046875,0.999267578125,-0.005859375,-0.0234375,0.001953125,0.7265625,-0.15234375,9.73046875
35,288000000,imu1_frame,-0.00628662109375,-0.035400390625,0.01385498046875,0.999267578125,-0.00390625,-0.009765625,0.001953125,0.7265625,-0.15234375,9.73046875
35,313000000,imu1_frame,-0.00628662109375,-0.035400390625,0.01385498046875,0.999267578125,-0.005859375,-0.01953125,0.001953125,0.7265625,-0.15234375,9.73046875
35,338000000,imu1_frame,-0.00628662109375,-0.035400390625,0.01385498046875,0.999267578125,0.00390625,-0.00390625,0.0,0.7265625,-0.15234375,9.73046875
35,363000000,imu1_frame,-0.00628662109375,-0.035400390625,0.01385498046875,0.999267578125,0.00390625,-0.00390625,0.0,0.7265625,-0.11328125,9.73046875
35,388000000,imu1_frame,-0.00628662109375,-0.035400390625,0.01385498046875,0.999267578125,0.00390625,-0.00390625,0.0,0.7265625,-0.15234375,9.73046875
35,413000000,imu1_frame,-0.00628662109375,-0.035400390625,0.01385498046875,0.999267578125,0.00390625,0.00390625,0.001953125,0.7265625,-0.15234375,9.73046875
35,438000000,imu1_frame,-0.00628662109375,-0.035400390625,0.01385498046875,0.999267578125,-0.001953125,0.001953125,0.001953125,0.7265625,-0.15234375,9.73046875
35,463000000,imu1_frame,-0.00628662109375,-0.035400390625,0.01385498046875,0.999267578125,-0.001953125,0.001953125,0.001953125,0.69140625,-0.11328125,9.7265625
35,488000000,imu1_frame,-0.00628662109375,-0.035400390625,0.01385498046875,0.999267578125,-0.001953125,0.001953125,0.001953125,0.69140625,-0.15234375,9.7265625
35,513000000,imu1_frame,-0.00628662109375,-0.035400390625,0.01385498046875,0.999267578125,-0.001953125,0.001953125,0.0,0.69140625,-0.15234375,9.7265625
35,538000000,imu1_frame,-0.00628662109375,-0.035400390625,0.01385498046875,0.999267578125,0.0,0.001953125,0.0,0.69140625,-0.15234375,9.7265625
35,563000000,imu1_frame,-0.00628662109375,-0.035400390625,0.01385498046875,0.999267578125,0.0,0.001953125,0.0,0.7265625,-0.15234375,9.73046875
35,588000000,imu1_frame,-0.00628662109375,-0.035400390625,0.01385498046875,0.999267578125,-0.00390625,-0.013671875,0.00390625,0.7265625,-0.15234375,9.73046875
35,613000000,imu1_frame,-0.00628662109375,-0.035400390625,0.01385498046875,0.999267578125,-0.005859375,-0.0078125,-0.001953125,0.7265625,-0.15234375,9.73046875
35,638000000,imu1_frame,-0.00628662109375,-0.035400390625,0.01385498046875,0.999267578125,-0.00390625,-0.005859375,-0.001953125,0.7265625,-0.15234375,9.73046875
35,663000000,imu1_frame,-0.00628662109375,-0.035400390625,0.01385498046875,0.999267578125,-0.00390625,-0.005859375,-0.001953125,0.7265625,-0.15234375,9.73046875
35,688000000,imu1_frame,-0.00628662109375,-0.035400390625,0.01385498046875,0.999267578125,-0.00390625,-0.005859375,-0.001953125,0.7265625,-0.15234375,9.73046875
35,713000000,imu1_frame,-0.00628662109375,-0.035400390625,0.01385498046875,0.999267578125,0.001953125,-0.00390625,-0.001953125,0.7265625,-0.15234375,9.73046875
35,738000000,imu1_frame,-0.00628662109375,-0.035400390625,0.01385498046875,0.999267578125,0.001953125,-0.001953125,0.001953125,0.7265625,-0.15234375,9.73046875
35,763000000,imu1_frame,-0.00628662109375,-0.035400390625,0.01385498046875,0.999267578125,0.001953125,-0.001953125,0.001953125,0.7265625,-0.15234375,9.73046875
35,788000000,imu1_frame,-0.00628662109375,-0.035400390625,0.01385498046875,0.999267578125,0.001953125,-0.001953125,0.001953125,0.7265625,-0.15234375,9.73046875
35,813000000,imu1_frame,-0.00628662109375,-0.035400390625,0.01385498046875,0.999267578125,0.001953125,-0.001953125,0.0,0.7265625,-0.15234375,9.73046875
35,838000000,imu1_frame,-0.00628662109375,-0.035400390625,0.01385498046875,0.999267578125,0.001953125,0.001953125,-0.00390625,0.7265625,-0.15234375,9.73046875
35,863000000,imu1_frame,-0.00628662109375,-0.035400390625,0.01385498046875,0.999267578125,0.001953125,0.001953125,-0.00390625,0.7265625,-0.15234375,9.73046875
35,888000000,imu1_frame,-0.00628662109375,-0.035400390625,0.01385498046875,0.999267578125,-0.00390625,-0.00390625,0.001953125,0.7265625,-0.15234375,9.73046875
35,913000000,imu1_frame,-0.00628662109375,-0.035400390625,0.01385498046875,0.999267578125,-0.00390625,-0.01171875,0.00390625,0.7265625,-0.15234375,9.73046875
35,938000000,imu1_frame,-0.00628662109375,-0.035400390625,0.01385498046875,0.999267578125,-0.001953125,-0.001953125,0.001953125,0.7265625,-0.15234375,9.73046875
35,963000000,imu1_frame,-0.00628662109375,-0.035400390625,0.01385498046875,0.999267578125,-0.001953125,-0.001953125,0.001953125,0.7265625,-0.15234375,9.73046875
35,988000000,imu1_frame,-0.00628662109375,-0.035400390625,0.01385498046875,0.999267578125,-0.001953125,-0.001953125,0.001953125,0.7265625,-0.15234375,9.73046875
36,13000000,imu1_frame,-0.00628662109375,-0.035400390625,0.01385498046875,0.999267578125,-0.001953125,-0.009765625,0.001953125,0.7265625,-0.15234375,9.73046875
36,38000000,imu1_frame,-0.00628662109375,-0.035400390625,0.01385498046875,0.999267578125,-0.005859375,-0.0078125,0.0,0.7265625,-0.15234375,9.73046875
36,63000000,imu1_frame,-0.00628662109375,-0.035400390625,0.01385498046875,0.999267578125,-0.005859375,-0.0078125,0.0,0.7265625,-0.15234375,9.73046875
36,88000000,imu1_frame,-0.00628662109375,-0.035400390625,0.01385498046875,0.999267578125,-0.005859375,-0.0078125,0.0,0.7265625,-0.15234375,9.73046875
36,113000000,imu1_frame,-0.00628662109375,-0.035400390625,0.01385498046875,0.999267578125,0.0,-0.0078125,-0.001953125,0.7265625,-0.15234375,9.73046875
36,138000000,imu1_frame,-0.00628662109375,-0.035400390625,0.01385498046875,0.999267578125,-0.00390625,-0.00390625,0.0,0.7265625,-0.15234375,9.73046875
36,163000000,imu1_frame,-0.00628662109375,-0.035400390625,0.01385498046875,0.999267578125,-0.00390625,-0.00390625,0.0,0.7265625,-0.15234375,9.73046875
36,188000000,imu1_frame,-0.00628662109375,-0.035400390625,0.01385498046875,0.999267578125,-0.001953125,-0.0078125,0.001953125,0.7265625,-0.15234375,9.73046875
36,213000000,imu1_frame,-0.00628662109375,-0.035400390625,0.01385498046875,0.999267578125,-0.00390625,-0.009765625,0.001953125,0.7265625,-0.15234375,9.73046875
36,238000000,imu1_frame,-0.00628662109375,-0.035400390625,0.01385498046875,0.999267578125,-0.001953125,0.0,0.00390625,0.7265625,-0.15234375,9.73046875
36,263000000,imu1_frame,-0.00628662109375,-0.035400390625,0.01385498046875,0.999267578125,-0.001953125,0.0,0.00390625,0.765625,-0.15234375,9.7265625
36,288000000,imu1_frame,-0.00628662109375,-0.035400390625,0.01385498046875,0.999267578125,-0.005859375,-0.00390625,0.0,0.765625,-0.15234375,9.7265625
36,313000000,imu1_frame,-0.00628662109375,-0.035400390625,0.01385498046875,0.999267578125,-0.00390625,-0.0078125,-0.001953125,0.765625,-0.15234375,9.7265625
36,338000000,imu1_frame,-0.00628662109375,-0.035400390625,0.01385498046875,0.999267578125,-0.001953125,-0.00390625,-0.00390625,0.765625,-0.15234375,9.7265625
36,363000000,imu1_frame,-0.00628662109375,-0.035400390625,0.01385498046875,0.999267578125,-0.001953125,-0.00390625,-0.00390625,0.765625,-0.15234375,9.7265625
36,388000000,imu1_frame,-0.00628662109375,-0.035400390625,0.01385498046875,0.999267578125,-0.001953125,-0.00390625,-0.00390625,0.7265625,-0.15234375,9.73046875
36,413000000,imu1_frame,-0.00628662109375,-0.035400390625,0.01385498046875,0.999267578125,0.001953125,0.001953125,0.001953125,0.7265625,-0.15234375,9.73046875
36,438000000,imu1_frame,-0.00628662109375,-0.035400390625,0.01385498046875,0.999267578125,-0.00390625,-0.0078125,-0.001953125,0.7265625,-0.15234375,9.73046875
36,463000000,imu1_frame,-0.00628662109375,-0.035400390625,0.01385498046875,0.999267578125,-0.00390625,-0.0078125,-0.001953125,0.765625,-0.15234375,9.6875
36,488000000,imu1_frame,-0.00628662109375,-0.035400390625,0.01385498046875,0.999267578125,-0.001953125,0.0,-0.001953125,0.765625,-0.15234375,9.6875
36,513000000,imu1_frame,-0.00628662109375,-0.035400390625,0.01385498046875,0.999267578125,0.001953125,-0.00390625,-0.001953125,0.765625,-0.15234375,9.6875
36,538000000,imu1_frame,-0.00628662109375,-0.035400390625,0.01385498046875,0.999267578125,0.0,0.00390625,0.001953125,0.765625,-0.15234375,9.6875
36,563000000,imu1_frame,-0.00628662109375,-0.035400390625,0.01385498046875,0.999267578125,0.0,0.00390625,0.001953125,0.765625,-0.15234375,9.7265625
36,588000000,imu1_frame,-0.00628662109375,-0.035400390625,0.01385498046875,0.999267578125,0.001953125,-0.001953125,0.0,0.765625,-0.15234375,9.7265625
36,613000000,imu1_frame,-0.00628662109375,-0.035400390625,0.01385498046875,0.999267578125,0.001953125,-0.0078125,0.001953125,0.765625,-0.15234375,9.7265625
36,638000000,imu1_frame,-0.00628662109375,-0.035400390625,0.01385498046875,0.999267578125,0.001953125,0.0,0.001953125,0.765625,-0.15234375,9.7265625
36,663000000,imu1_frame,-0.00628662109375,-0.035400390625,0.01385498046875,0.999267578125,0.001953125,0.0,0.001953125,0.7265625,-0.15234375,9.73046875
36,688000000,imu1_frame,-0.00628662109375,-0.035400390625,0.01385498046875,0.999267578125,0.001953125,0.0,0.001953125,0.7265625,-0.15234375,9.73046875
36,713000000,imu1_frame,-0.00628662109375,-0.035400390625,0.01385498046875,0.999267578125,-0.001953125,-0.001953125,-0.00390625,0.7265625,-0.15234375,9.73046875
36,738000000,imu1_frame,-0.00628662109375,-0.035400390625,0.01385498046875,0.999267578125,0.001953125,0.0,0.001953125,0.7265625,-0.15234375,9.73046875
36,763000000,imu1_frame,-0.00628662109375,-0.035400390625,0.01385498046875,0.999267578125,0.001953125,0.0,0.001953125,0.7265625,-0.15234375,9.73046875
36,788000000,imu1_frame,-0.00628662109375,-0.035400390625,0.01385498046875,0.999267578125,0.001953125,0.0,0.001953125,0.765625,-0.15234375,9.7265625
36,813000000,imu1_frame,-0.00628662109375,-0.035400390625,0.01385498046875,0.999267578125,0.001953125,0.0,0.001953125,0.765625,-0.15234375,9.7265625
36,838000000,imu1_frame,-0.00628662109375,-0.035400390625,0.01385498046875,0.999267578125,0.001953125,0.0,-0.001953125,0.765625,-0.15234375,9.7265625
36,863000000,imu1_frame,-0.00628662109375,-0.035400390625,0.01385498046875,0.999267578125,0.001953125,0.0,-0.001953125,0.765625,-0.15234375,9.7265625
36,888000000,imu1_frame,-0.00628662109375,-0.035400390625,0.01385498046875,0.999267578125,0.0,-0.001953125,-0.00390625,0.765625,-0.15234375,9.7265625
36,913000000,imu1_frame,-0.00628662109375,-0.035400390625,0.01385498046875,0.999267578125,0.001953125,0.001953125,0.00390625,0.765625,-0.15234375,9.7265625
36,938000000,imu1_frame,-0.00628662109375,-0.035400390625,0.01385498046875,0.999267578125,0.00390625,0.0078125,-0.001953125,0.765625,-0.15234375,9.7265625
36,963000000,imu1_frame,-0.00628662109375,-0.035400390625,0.01385498046875,0.999267578125,0.00390625,0.0078125,-0.001953125,0.765625,-0.15234375,9.7265625
36,988000000,imu1_frame,-0.00628662109375,-0.035400390625,0.01385498046875,0.999267578125,0.00390625,0.0078125,-0.001953125,0.765625,-0.15234375,9.7265625
37,13000000,imu1_frame,-0.00628662109375,-0.035400390625,0.01385498046875,0.999267578125,-0.00390625,0.0,0.001953125,0.765625,-0.15234375,9.7265625
37,38000000,imu1_frame,-0.00628662109375,-0.035400390625,0.01385498046875,0.999267578125,-0.00390625,-0.009765625,-0.001953125,0.765625,-0.15234375,9.7265625
37,63000000,imu1_frame,-0.00628662109375,-0.035400390625,0.01385498046875,0.999267578125,-0.00390625,-0.009765625,-0.001953125,0.765625,-0.15234375,9.7265625
37,88000000,imu1_frame,-0.00628662109375,-0.035400390625,0.01385498046875,0.999267578125,-0.00390625,-0.009765625,-0.001953125,0.7265625,-0.15234375,9.73046875
37,113000000,imu1_frame,-0.00628662109375,-0.035400390625,0.01385498046875,0.999267578125,-0.005859375,-0.009765625,0.0,0.7265625,-0.15234375,9.73046875
37,138000000,imu1_frame,-0.00628662109375,-0.035400390625,0.01385498046875,0.999267578125,-0.00390625,-0.009765625,-0.001953125,0.7265625,-0.15234375,9.73046875
37,163000000,imu1_frame,-0.00628662109375,-0.035400390625,0.01385498046875,0.999267578125,-0.00390625,-0.009765625,-0.001953125,0.765625,-0.15234375,9.7265625
37,188000000,imu1_frame,-0.00628662109375,-0.035400390625,0.01385498046875,0.999267578125,0.001953125,0.0,0.0,0.765625,-0.15234375,9.7265625
37,213000000,imu1_frame,-0.00628662109375,-0.035400390625,0.01385498046875,0.999267578125,-0.001953125,0.001953125,-0.00390625,0.765625,-0.15234375,9.7265625
37,238000000,imu1_frame,-0.00628662109375,-0.035400390625,0.01385498046875,0.999267578125,-0.001953125,0.001953125,-0.00390625,0.765625,-0.15234375,9.7265625
37,263000000,imu1_frame,-0.00628662109375,-0.035400390625,0.01385498046875,0.999267578125,-0.00390625,-0.001953125,-0.001953125,0.765625,-0.15234375,9.7265625
37,288000000,imu1_frame,-0.00628662109375,-0.035400390625,0.01385498046875,0.999267578125,-0.00390625,-0.001953125,-0.001953125,0.765625,-0.15234375,9.7265625
37,313000000,imu1_frame,-0.00628662109375,-0.035400390625,0.01385498046875,0.999267578125,0.001953125,-0.001953125,-0.00390625,0.765625,-0.15234375,9.7265625
37,338000000,imu1_frame,-0.00628662109375,-0.035400390625,0.01385498046875,0.999267578125,0.001953125,-0.001953125,-0.00390625,0.8046875,-0.19140625,9.73046875
37,363000000,imu1_frame,-0.00628662109375,-0.035400390625,0.01385498046875,0.999267578125,0.001953125,-0.001953125,-0.00390625,0.765625,-0.19140625,9.73046875
37,388000000,imu1_frame,-0.00628662109375,-0.035400390625,0.01385498046875,0.999267578125,0.001953125,-0.001953125,-0.00390625,0.765625,-0.15234375,9.7265625
37,413000000,imu1_frame,-0.00628662109375,-0.035400390625,0.01385498046875,0.999267578125,0.0,-0.001953125,-0.001953125,0.765625,-0.15234375,9.7265625
37,438000000,imu1_frame,-0.00628662109375,-0.035400390625,0.01385498046875,0.999267578125,0.0,-0.001953125,-0.001953125,0.8046875,-0.19140625,9.73046875
37,463000000,imu1_frame,-0.00628662109375,-0.035400390625,0.01385498046875,0.999267578125,0.0,-0.001953125,-0.001953125,0.765625,-0.15234375,9.7265625
37,488000000,imu1_frame,-0.00628662109375,-0.035400390625,0.01385498046875,0.999267578125,0.0,0.0,-0.00390625,0.765625,-0.15234375,9.7265625
37,513000000,imu1_frame,-0.00628662109375,-0.035400390625,0.01385498046875,0.999267578125,0.0,0.00390625,0.0,0.765625,-0.15234375,9.7265625
37,538000000,imu1_frame,-0.00628662109375,-0.035400390625,0.01385498046875,0.999267578125,0.0,0.00390625,0.0,0.8046875,-0.15234375,9.7265625
37,563000000,imu1_frame,-0.00628662109375,-0.035400390625,0.01385498046875,0.999267578125,-0.00390625,-0.0078125,-0.001953125,0.8046875,-0.15234375,9.7265625
37,588000000,imu1_frame,-0.00628662109375,-0.035400390625,0.01385498046875,0.999267578125,-0.00390625,-0.0078125,-0.001953125,0.84375,-0.15234375,9.73046875
37,613000000,imu1_frame,-0.00628662109375,-0.035400390625,0.01385498046875,0.999267578125,0.001953125,0.005859375,0.001953125,0.84375,-0.15234375,9.73046875
37,638000000,imu1_frame,-0.00628662109375,-0.035400390625,0.01385498046875,0.999267578125,0.001953125,0.005859375,0.001953125,0.8046875,-0.19140625,9.73046875
37,663000000,imu1_frame,-0.00628662109375,-0.035400390625,0.01385498046875,0.999267578125,0.001953125,0.005859375,0.001953125,0.765625,-0.11328125,9.7265625
37,688000000,imu1_frame,-0.00628662109375,-0.035400390625,0.01385498046875,0.999267578125,0.001953125,0.005859375,0.001953125,0.765625,-0.15234375,9.6875
37,713000000,imu1_frame,-0.00628662109375,-0.035400390625,0.01385498046875,0.999267578125,-0.0078125,-0.013671875,0.00390625,0.765625,-0.15234375,9.6875
37,738000000,imu1_frame,-0.00628662109375,-0.035400390625,0.01385498046875,0.999267578125,-0.0078125,-0.013671875,0.00390625,0.8046875,-0.15234375,9.7265625
37,763000000,imu1_frame,-0.00628662109375,-0.035400390625,0.01385498046875,0.999267578125,-0.0078125,-0.013671875,0.00390625,0.765625,-0.11328125,9.7265625
37,788000000,imu1_frame,-0.00628662109375,-0.035400390625,0.01385498046875,0.999267578125,-0.00390625,-0.009765625,0.0,0.765625,-0.11328125,9.7265625
37,813000000,imu1_frame,-0.00628662109375,-0.035400390625,0.01385498046875,0.999267578125,-0.005859375,-0.009765625,0.001953125,0.765625,-0.11328125,9.7265625
37,838000000,imu1_frame,-0.00628662109375,-0.035400390625,0.01385498046875,0.999267578125,-0.005859375,-0.009765625,0.001953125,0.8046875,-0.15234375,9.7265625
37,863000000,imu1_frame,-0.00628662109375,-0.035400390625,0.01385498046875,0.999267578125,-0.00390625,0.001953125,-0.00390625,0.8046875,-0.15234375,9.7265625
37,888000000,imu1_frame,-0.00628662109375,-0.035400390625,0.01385498046875,0.999267578125,-0.00390625,0.001953125,-0.00390625,0.8046875,-0.15234375,9.6875
37,913000000,imu1_frame,-0.00628662109375,-0.035400390625,0.01385498046875,0.999267578125,0.0,0.001953125,0.0,0.8046875,-0.15234375,9.6875
37,938000000,imu1_frame,-0.00628662109375,-0.035400390625,0.01385498046875,0.999267578125,0.0,0.001953125,0.0,0.765625,-0.15234375,9.7265625
37,963000000,imu1_frame,-0.00628662109375,-0.035400390625,0.01385498046875,0.999267578125,0.0,0.001953125,0.0,0.8046875,-0.15234375,9.7265625
37,988000000,imu1_frame,-0.00628662109375,-0.035400390625,0.01385498046875,0.999267578125,0.0,0.001953125,0.0,0.8046875,-0.19140625,9.73046875
38,13000000,imu1_frame,-0.00628662109375,-0.035400390625,0.01385498046875,0.999267578125,0.00390625,0.00390625,0.001953125,0.8046875,-0.19140625,9.73046875
38,38000000,imu1_frame,-0.00628662109375,-0.035400390625,0.01385498046875,0.999267578125,0.00390625,0.00390625,0.001953125,0.8046875,-0.15234375,9.7265625
38,63000000,imu1_frame,-0.00628662109375,-0.035400390625,0.01385498046875,0.999267578125,0.00390625,0.00390625,0.001953125,0.8046875,-0.15234375,9.7265625
38,88000000,imu1_frame,-0.00628662109375,-0.035400390625,0.01385498046875,0.999267578125,0.001953125,0.0,-0.001953125,0.8046875,-0.15234375,9.7265625
38,113000000,imu1_frame,-0.00628662109375,-0.035400390625,0.01385498046875,0.999267578125,0.001953125,0.0,-0.001953125,0.765625,-0.15234375,9.7265625
38,138000000,imu1_frame,-0.008056640625,-0.0406494140625,0.0123291015625,0.99908447265625,0.001953125,0.0,-0.001953125,0.765625,-0.15234375,9.7265625
38,163000000,imu1_frame,-0.008056640625,-0.0406494140625,0.0123291015625,0.99908447265625,-0.005859375,0.0,0.0,0.765625,-0.15234375,9.7265625
38,188000000,imu1_frame,-0.008056640625,-0.0406494140625,0.0123291015625,0.99908447265625,-0.005859375,0.0,0.0,0.8046875,-0.15234375,9.7265625
38,213000000,imu1_frame,-0.008056640625,-0.0406494140625,0.0123291015625,0.99908447265625,-0.001953125,-0.005859375,-0.001953125,0.8046875,-0.15234375,9.7265625
38,238000000,imu1_frame,-0.008056640625,-0.0406494140625,0.0123291015625,0.99908447265625,-0.001953125,-0.005859375,-0.001953125,0.8046875,-0.15234375,9.7265625
38,263000000,imu1_frame,-0.008056640625,-0.0406494140625,0.0123291015625,0.99908447265625,-0.001953125,-0.005859375,-0.001953125,0.84375,-0.19140625,9.7265625
38,288000000,imu1_frame,-0.008056640625,-0.0406494140625,0.0123291015625,0.99908447265625,-0.001953125,-0.005859375,-0.001953125,0.84375,-0.19140625,9.7265625
38,313000000,imu1_frame,-0.008056640625,-0.0406494140625,0.0123291015625,0.99908447265625,0.0078125,0.01953125,0.0,0.84375,-0.19140625,9.7265625
38,338000000,imu1_frame,-0.008056640625,-0.0406494140625,0.0123291015625,0.99908447265625,0.0078125,0.01953125,0.0,0.8046875,-0.19140625,9.73046875
38,363000000,imu1_frame,-0.008056640625,-0.0406494140625,0.0123291015625,0.99908447265625,0.0078125,0.01953125,0.0,0.8046875,-0.19140625,9.73046875
38,388000000,imu1_frame,-0.008056640625,-0.0406494140625,0.0123291015625,0.99908447265625,0.001953125,0.0,0.0,0.8046875,-0.19140625,9.73046875
38,413000000,imu1_frame,-0.008056640625,-0.0406494140625,0.0123291015625,0.99908447265625,-0.001953125,-0.01171875,-0.00390625,0.8046875,-0.19140625,9.73046875
38,438000000,imu1_frame,-0.008056640625,-0.0406494140625,0.0123291015625,0.99908447265625,-0.001953125,-0.01171875,-0.00390625,0.84375,-0.15234375,9.73046875
38,463000000,imu1_frame,-0.008056640625,-0.0406494140625,0.0123291015625,0.99908447265625,0.00390625,0.0078125,0.001953125,0.84375,-0.15234375,9.73046875
38,488000000,imu1_frame,-0.008056640625,-0.0406494140625,0.0123291015625,0.99908447265625,0.00390625,0.0078125,0.001953125,0.8046875,-0.15234375,9.7265625
38,513000000,imu1_frame,-0.008056640625,-0.0406494140625,0.0123291015625,0.99908447265625,-0.00390625,-0.00390625,0.00390625,0.8046875,-0.15234375,9.7265625
38,538000000,imu1_frame,-0.008056640625,-0.0406494140625,0.0123291015625,0.99908447265625,-0.00390625,-0.00390625,0.00390625,0.8046875,-0.19140625,9.73046875
38,563000000,imu1_frame,-0.008056640625,-0.0406494140625,0.0123291015625,0.99908447265625,-0.00390625,-0.00390625,0.00390625,0.8046875,-0.15234375,9.7265625
38,588000000,imu1_frame,-0.008056640625,-0.0406494140625,0.0123291015625,0.99908447265625,-0.00390625,-0.00390625,0.00390625,0.8046875,-0.15234375,9.7265625
38,613000000,imu1_frame,-0.008056640625,-0.0406494140625,0.0123291015625,0.99908447265625,0.001953125,0.001953125,0.001953125,0.8046875,-0.15234375,9.7265625
38,638000000,imu1_frame,-0.008056640625,-0.0406494140625,0.0123291015625,0.99908447265625,0.001953125,0.001953125,0.001953125,0.8046875,-0.15234375,9.7265625
38,663000000,imu1_frame,-0.008056640625,-0.0406494140625,0.0123291015625,0.99908447265625,0.001953125,0.001953125,0.001953125,0.8046875,-0.15234375,9.6875
38,688000000,imu1_frame,-0.008056640625,-0.0406494140625,0.0123291015625,0.99908447265625,0.001953125,0.00390625,-0.001953125,0.8046875,-0.15234375,9.6875
38,713000000,imu1_frame,-0.008056640625,-0.0406494140625,0.0123291015625,0.99908447265625,0.001953125,0.00390625,-0.001953125,0.8046875,-0.15234375,9.7265625
38,738000000,imu1_frame,-0.008056640625,-0.0406494140625,0.0123291015625,0.99908447265625,0.001953125,0.00390625,-0.001953125,0.8046875,-0.15234375,9.7265625
38,763000000,imu1_frame,-0.008056640625,-0.0406494140625,0.0123291015625,0.99908447265625,-0.001953125,0.00390625,0.001953125,0.8046875,-0.15234375,9.7265625
38,788000000,imu1_frame,-0.008056640625,-0.0406494140625,0.0123291015625,0.99908447265625,-0.001953125,0.00390625,0.001953125,0.8046875,-0.15234375,9.7265625
38,813000000,imu1_frame,-0.008056640625,-0.0406494140625,0.0123291015625,0.99908447265625,0.0,-0.001953125,0.001953125,0.8046875,-0.15234375,9.7265625
38,838000000,imu1_frame,-0.008056640625,-0.0406494140625,0.0123291015625,0.99908447265625,0.0,-0.001953125,0.001953125,0.8046875,-0.15234375,9.7265625
38,863000000,imu1_frame,-0.008056640625,-0.0406494140625,0.0123291015625,0.99908447265625,0.0,-0.001953125,0.001953125,0.765625,-0.15234375,9.7265625
38,888000000,imu1_frame,-0.008056640625,-0.0406494140625,0.0123291015625,0.99908447265625,0.0,-0.001953125,0.001953125,0.765625,-0.15234375,9.7265625
38,913000000,imu1_frame,-0.008056640625,-0.0406494140625,0.0123291015625,0.99908447265625,0.00390625,0.00390625,0.00390625,0.765625,-0.15234375,9.7265625
38,938000000,imu1_frame,-0.008056640625,-0.0406494140625,0.0123291015625,0.99908447265625,0.00390625,0.00390625,0.00390625,0.765625,-0.11328125,9.7265625
38,963000000,imu1_frame,-0.008056640625,-0.0406494140625,0.0123291015625,0.99908447265625,0.00390625,0.00390625,0.00390625,0.765625,-0.15234375,9.6875
38,988000000,imu1_frame,-0.008056640625,-0.0406494140625,0.0123291015625,0.99908447265625,0.0,0.0,0.0,0.765625,-0.15234375,9.6875
39,13000000,imu1_frame,-0.008056640625,-0.0406494140625,0.0123291015625,0.99908447265625,0.0,0.0,0.0,0.8046875,-0.15234375,9.7265625
39,38000000,imu1_frame,-0.008056640625,-0.0406494140625,0.0123291015625,0.99908447265625,0.0,0.0,0.0,0.765625,-0.15234375,9.7265625
39,63000000,imu1_frame,-0.008056640625,-0.0406494140625,0.0123291015625,0.99908447265625,-0.00390625,-0.005859375,-0.00390625,0.765625,-0.15234375,9.7265625
39,88000000,imu1_frame,-0.008056640625,-0.0406494140625,0.0123291015625,0.99908447265625,-0.00390625,-0.005859375,-0.00390625,0.8046875,-0.19140625,9.73046875
39,113000000,imu1_frame,-0.008056640625,-0.0406494140625,0.0123291015625,0.99908447265625,-0.00390625,-0.009765625,0.00390625,0.8046875,-0.19140625,9.73046875
39,138000000,imu1_frame,-0.008056640625,-0.0406494140625,0.0123291015625,0.99908447265625,-0.00390625,-0.009765625,0.00390625,0.765625,-0.11328125,9.7265625
39,163000000,imu1_frame,-0.008056640625,-0.0406494140625,0.0123291015625,0.99908447265625,-0.00390625,-0.009765625,0.00390625,0.765625,-0.19140625,9.73046875
