timestamp_sec,timestamp_nsec,frame_id,orientation_x,orientation_y,orientation_z,orientation_w,angular_velocity_x,angular_velocity_y,angular_velocity_z,linear_acceleration_x,linear_acceleration_y,linear_acceleration_z
19,413000000,imu2_frame,-0.01446533203125,0.00067138671875,0.0001220703125,0.9998779296875,0.0,0.0,0.0,-0.015625,-0.28515625,9.80859375
19,438000000,imu2_frame,-0.01446533203125,0.00067138671875,0.0001220703125,0.9998779296875,0.0,0.0,0.0,-0.015625,-0.28515625,9.80859375
19,463000000,imu2_frame,-0.01446533203125,0.00067138671875,0.0001220703125,0.9998779296875,0.0,0.0,0.0,-0.015625,-0.28515625,9.80859375
19,488000000,imu2_frame,-0.01446533203125,0.00067138671875,0.0001220703125,0.9998779296875,0.0,0.0,0.0,0.0234375,-0.28515625,9.8046875
19,513000000,imu2_frame,-0.01446533203125,0.00067138671875,0.0001220703125,0.9998779296875,0.0,0.0,0.0,0.0234375,-0.28515625,9.8046875
19,538000000,imu2_frame,-0.01446533203125,0.00067138671875,0.0001220703125,0.9998779296875,0.0,0.0,0.0,0.0234375,-0.28515625,9.84765625
19,563000000,imu2_frame,-0.01446533203125,0.00067138671875,0.0001220703125,0.9998779296875,0.0,0.0,0.0,-0.015625,-0.28515625,9.80859375
19,588000000,imu2_frame,-0.01446533203125,0.00067138671875,0.0001220703125,0.9998779296875,0.0,0.0,0.0,-0.015625,-0.24609375,9.80859375
19,613000000,imu2_frame,-0.01446533203125,0.00067138671875,0.0001220703125,0.9998779296875,0.0,0.0,0.0,-0.015625,-0.24609375,9.80859375
19,638000000,imu2_frame,-0.01446533203125,0.00067138671875,0.0001220703125,0.9998779296875,0.0,0.0,0.0,-0.015625,-0.24609375,9.80859375
19,663000000,imu2_frame,-0.01446533203125,0.00067138671875,0.0001220703125,0.9998779296875,0.0,0.0,0.0,0.0234375,-0.24609375,9.8046875
19,688000000,imu2_frame,-0.01446533203125,0.00067138671875,0.0001220703125,0.9998779296875,0.0,0.0,0.0,0.0234375,-0.24609375,9.8046875
19,713000000,imu2_frame,-0.01446533203125,0.00067138671875,0.0001220703125,0.9998779296875,0.0,0.0,0.0,-0.015625,-0.28515625,9.80859375
19,738000000,imu2_frame,-0.01446533203125,0.00067138671875,0.0001220703125,0.9998779296875,0.0,0.0,0.0,-0.015625,-0.28515625,9.80859375
19,763000000,imu2_frame,-0.01446533203125,0.00067138671875,0.0001220703125,0.9998779296875,0.0,0.0,0.0,-0.015625,-0.28515625,9.80859375
19,788000000,imu2_frame,-0.01446533203125,0.00067138671875,0.0001220703125,0.9998779296875,0.0,0.0,0.0,-0.015625,-0.28515625,9.80859375
19,813000000,imu2_frame,-0.01446533203125,0.00067138671875,0.0001220703125,0.9998779296875,0.0,-0.001953125,0.001953125,-0.015625,-0.28515625,9.80859375
19,838000000,imu2_frame,-0.01446533203125,0.00067138671875,0.0001220703125,0.9998779296875,0.0,-0.001953125,0.001953125,-0.015625,-0.28515625,9.80859375
19,863000000,imu2_frame,-0.01446533203125,0.00067138671875,0.0001220703125,0.9998779296875,0.0,-0.001953125,0.001953125,0.0234375,-0.28515625,9.8046875
19,888000000,imu2_frame,-0.01446533203125,0.00067138671875,0.0001220703125,0.9998779296875,0.0,-0.001953125,0.001953125,-0.015625,-0.28515625,9.80859375
19,913000000,imu2_frame,-0.01446533203125,0.00067138671875,0.0001220703125,0.9998779296875,0.001953125,0.0,-0.001953125,-0.015625,-0.28515625,9.80859375
19,938000000,imu2_frame,-0.01446533203125,0.00067138671875,0.0001220703125,0.9998779296875,0.001953125,0.0,-0.001953125,0.0234375,-0.24609375,9.84765625
19,963000000,imu2_frame,-0.01446533203125,0.00067138671875,0.0001220703125,0.9998779296875,0.001953125,0.0,-0.001953125,-0.015625,-0.28515625,9.80859375
19,988000000,imu2_frame,-0.01446533203125,0.00067138671875,0.0001220703125,0.9998779296875,0.001953125,0.0,-0.001953125,-0.015625,-0.28515625,9.80859375
20,13000000,imu2_frame,-0.01446533203125,0.00067138671875,0.0001220703125,0.9998779296875,0.0,0.001953125,0.001953125,-0.015625,-0.28515625,9.80859375
20,38000000,imu2_frame,-0.01446533203125,0.00067138671875,0.0001220703125,0.9998779296875,0.0,0.001953125,0.001953125,-0.015625,-0.28515625,9.80859375
20,63000000,imu2_frame,-0.01446533203125,0.00067138671875,0.0001220703125,0.9998779296875,0.0,0.001953125,0.001953125,-0.015625,-0.28515625,9.80859375
20,88000000,imu2_frame,-0.01446533203125,0.00067138671875,0.0001220703125,0.9998779296875,0.001953125,0.001953125,0.001953125,-0.015625,-0.28515625,9.80859375
20,113000000,imu2_frame,-0.01446533203125,0.00067138671875,0.0001220703125,0.9998779296875,0.001953125,0.001953125,0.001953125,-0.015625,-0.24609375,9.80859375
20,138000000,imu2_frame,-0.01446533203125,0.00067138671875,0.0001220703125,0.9998779296875,0.001953125,0.001953125,0.001953125,-0.015625,-0.28515625,9.80859375
20,163000000,imu2_frame,-0.01446533203125,0.00067138671875,0.0001220703125,0.9998779296875,0.001953125,-0.001953125,0.0,-0.015625,-0.28515625,9.80859375
20,188000000,imu2_frame,-0.01446533203125,0.00067138671875,0.0001220703125,0.9998779296875,0.001953125,-0.001953125,0.0,-0.015625,-0.28515625,9.80859375
20,213000000,imu2_frame,-0.01446533203125,0.00067138671875,0.0001220703125,0.9998779296875,0.0,-0.001953125,0.0,-0.015625,-0.28515625,9.80859375
20,238000000,imu2_frame,-0.01446533203125,0.00067138671875,0.0001220703125,0.9998779296875,0.0,-0.001953125,0.0,-0.015625,-0.28515625,9.80859375
20,263000000,imu2_frame,-0.01446533203125,0.00067138671875,0.0001220703125,0.9998779296875,0.0,-0.001953125,0.0,-0.015625,-0.24609375,9.84375
20,288000000,imu2_frame,-0.01446533203125,0.00067138671875,0.0001220703125,0.9998779296875,0.0,-0.001953125,0.0,-0.015625,-0.24609375,9.80859375
20,313000000,imu2_frame,-0.01446533203125,0.00067138671875,0.0001220703125,0.9998779296875,-0.009765625,0.0,-0.001953125,-0.015625,-0.24609375,9.80859375
20,338000000,imu2_frame,-0.01446533203125,0.00067138671875,0.0001220703125,0.9998779296875,-0.009765625,0.0,-0.001953125,0.0234375,-0.28515625,9.8046875
20,363000000,imu2_frame,-0.01446533203125,0.00067138671875,0.0001220703125,0.9998779296875,-0.009765625,0.0,-0.001953125,-0.015625,-0.28515625,9.80859375
20,388000000,imu2_frame,-0.01446533203125,0.00067138671875,0.0001220703125,0.9998779296875,-0.009765625,0.0,-0.001953125,0.0234375,-0.24609375,9.8046875
20,413000000,imu2_frame,-0.01446533203125,0.00067138671875,0.0001220703125,0.9998779296875,-0.001953125,0.0,0.0,0.0234375,-0.24609375,9.8046875
20,438000000,imu2_frame,-0.01446533203125,0.00067138671875,0.0001220703125,0.9998779296875,-0.001953125,0.0,0.0,-0.015625,-0.28515625,9.84375
20,463000000,imu2_frame,-0.01446533203125,0.00067138671875,0.0001220703125,0.9998779296875,-0.001953125,0.0,0.0,-0.015625,-0.24609375,9.84375
20,488000000,imu2_frame,-0.01446533203125,0.00067138671875,0.0001220703125,0.9998779296875,-0.001953125,0.001953125,-0.001953125,-0.015625,-0.24609375,9.84375
20,513000000,imu2_frame,-0.01446533203125,0.00067138671875,0.0001220703125,0.9998779296875,-0.001953125,0.001953125,-0.001953125,0.0234375,-0.28515625,9.8046875
20,538000000,imu2_frame,-0.01434326171875,0.000244140625,-0.00494384765625,0.9998779296875,-0.001953125,0.001953125,-0.001953125,0.0234375,-0.28515625,9.8046875
20,563000000,imu2_frame,-0.01434326171875,0.000244140625,-0.00494384765625,0.9998779296875,0.005859375,0.0,0.005859375,0.0234375,-0.28515625,9.8046875
20,588000000,imu2_frame,-0.01434326171875,0.000244140625,-0.00494384765625,0.9998779296875,0.005859375,0.0,0.005859375,-0.015625,-0.28515625,9.80859375
20,613000000,imu2_frame,-0.01434326171875,0.000244140625,-0.00494384765625,0.9998779296875,0.0,0.00390625,-0.001953125,-0.015625,-0.28515625,9.80859375
20,638000000,imu2_frame,-0.01434326171875,0.000244140625,-0.00494384765625,0.9998779296875,0.0,0.00390625,-0.001953125,-0.015625,-0.28515625,9.80859375
20,663000000,imu2_frame,-0.01434326171875,0.000244140625,-0.00494384765625,0.9998779296875,0.0,0.00390625,-0.001953125,-0.015625,-0.24609375,9.84375
20,688000000,imu2_frame,-0.01434326171875,0.000244140625,-0.00494384765625,0.9998779296875,0.0,0.00390625,-0.001953125,-0.015625,-0.28515625,9.80859375
20,713000000,imu2_frame,-0.01434326171875,0.000244140625,-0.00494384765625,0.9998779296875,0.0,0.0,0.001953125,-0.015625,-0.28515625,9.80859375
20,738000000,imu2_frame,-0.01434326171875,0.000244140625,-0.00494384765625,0.9998779296875,0.0,0.0,0.001953125,-0.015625,-0.28515625,9.84375
20,763000000,imu2_frame,-0.01434326171875,0.000244140625,-0.00494384765625,0.9998779296875,0.0,0.0,0.001953125,-0.015625,-0.28515625,9.80859375
20,788000000,imu2_frame,-0.01434326171875,0.000244140625,-0.00494384765625,0.9998779296875,0.0,0.0,0.001953125,-0.015625,-0.28515625,9.80859375
20,813000000,imu2_frame,-0.01434326171875,0.000244140625,-0.00494384765625,0.9998779296875,0.001953125,0.001953125,0.001953125,-0.015625,-0.28515625,9.80859375
20,838000000,imu2_frame,-0.01434326171875,0.000244140625,-0.00494384765625,0.9998779296875,0.001953125,0.001953125,0.001953125,0.0234375,-0.24609375,9.8046875
20,863000000,imu2_frame,-0.01434326171875,0.000244140625,-0.00494384765625,0.9998779296875,0.001953125,0.001953125,0.001953125,-0.015625,-0.28515625,9.80859375
20,888000000,imu2_frame,-0.01434326171875,0.000244140625,-0.00494384765625,0.9998779296875,0.001953125,0.001953125,0.001953125,-0.015625,-0.28515625,9.80859375
20,913000000,imu2_frame,-0.01434326171875,0.000244140625,-0.00494384765625,0.9998779296875,0.001953125,0.001953125,0.001953125,-0.015625,-0.28515625,9.84375
20,938000000,imu2_frame,-0.01434326171875,0.00030517578125,-0.00469970703125,0.9998779296875,0.001953125,0.001953125,0.001953125,-0.015625,-0.28515625,9.84375
20,963000000,imu2_frame,-0.01434326171875,0.00030517578125,-0.00469970703125,0.9998779296875,0.0,0.0,0.005859375,-0.015625,-0.28515625,9.84375
20,988000000,imu2_frame,-0.01434326171875,0.00030517578125,-0.00469970703125,0.9998779296875,0.0,0.0,0.005859375,-0.015625,-0.28515625,9.84375
21,13000000,imu2_frame,-0.01434326171875,0.00030517578125,-0.00469970703125,0.9998779296875,0.0,0.0,0.00390625,-0.015625,-0.28515625,9.84375
21,38000000,imu2_frame,-0.01434326171875,0.0003662109375,-0.00457763671875,0.9998779296875,0.0,0.0,0.00390625,-0.015625,-0.28515625,9.84375
21,63000000,imu2_frame,-0.01434326171875,0.0003662109375,-0.00457763671875,0.9998779296875,0.0,0.0,0.00390625,-0.015625,-0.28515625,9.80859375
21,88000000,imu2_frame,-0.01434326171875,0.0003662109375,-0.00457763671875,0.9998779296875,0.0,0.0,0.00390625,0.0234375,-0.28515625,9.8046875
21,113000000,imu2_frame,-0.01434326171875,0.0003662109375,-0.00457763671875,0.9998779296875,0.001953125,0.0,-0.001953125,0.0234375,-0.28515625,9.8046875
21,138000000,imu2_frame,-0.01434326171875,0.0003662109375,-0.00457763671875,0.9998779296875,-0.00390625,0.0,-0.00390625,0.0234375,-0.28515625,9.8046875
21,163000000,imu2_frame,-0.01434326171875,0.0003662109375,-0.00457763671875,0.9998779296875,-0.00390625,0.0,-0.00390625,-0.015625,-0.28515625,9.80859375
21,188000000,imu2_frame,-0.01434326171875,0.0003662109375,-0.00457763671875,0.9998779296875,-0.00390625,0.0,0.0,-0.015625,-0.28515625,9.80859375
21,213000000,imu2_frame,-0.01434326171875,0.0003662109375,-0.00457763671875,0.9998779296875,-0.005859375,0.001953125,0.001953125,-0.015625,-0.28515625,9.80859375
21,238000000,imu2_frame,-0.0146484375,0.00042724609375,-0.00469970703125,0.9998779296875,-0.005859375,0.001953125,0.001953125,-0.015625,-0.28515625,9.80859375
21,263000000,imu2_frame,-0.0146484375,0.00042724609375,-0.00469970703125,0.9998779296875,-0.005859375,0.001953125,0.001953125,-0.015625,-0.28515625,9.80859375
21,288000000,imu2_frame,-0.0146484375,0.00042724609375,-0.00469970703125,0.9998779296875,-0.001953125,0.0,0.001953125,-0.015625,-0.28515625,9.80859375
21,313000000,imu2_frame,-0.0146484375,0.00042724609375,-0.00469970703125,0.9998779296875,-0.001953125,0.0,0.001953125,0.0234375,-0.28515625,9.8046875
21,338000000,imu2_frame,-0.01495361328125,0.00054931640625,-0.00457763671875,0.9998779296875,-0.001953125,0.0,0.001953125,0.0234375,-0.28515625,9.8046875
21,363000000,imu2_frame,-0.01495361328125,0.00054931640625,-0.00457763671875,0.9998779296875,-0.01953125,0.001953125,0.005859375,0.0234375,-0.28515625,9.8046875
21,388000000,imu2_frame,-0.01495361328125,0.00054931640625,-0.00457763671875,0.9998779296875,-0.01953125,0.001953125,0.005859375,-0.015625,-0.28515625,9.80859375
21,413000000,imu2_frame,-0.01495361328125,0.00054931640625,-0.00457763671875,0.9998779296875,-0.017578125,-0.005859375,0.0078125,-0.015625,-0.28515625,9.80859375
21,438000000,imu2_frame,-0.01495361328125,0.00054931640625,-0.00457763671875,0.9998779296875,0.00390625,0.0,0.01171875,-0.015625,-0.28515625,9.80859375
21,463000000,imu2_frame,-0.01495361328125,0.00054931640625,-0.00457763671875,0.9998779296875,0.00390625,0.0,0.01171875,0.0234375,-0.32421875,9.80859375
21,488000000,imu2_frame,-0.01495361328125,0.00054931640625,-0.00457763671875,0.9998779296875,0.00390625,0.0,0.01171875,0.0234375,-0.28515625,9.8046875
21,513000000,imu2_frame,-0.01495361328125,0.00054931640625,-0.00457763671875,0.9998779296875,-0.017578125,-0.001953125,0.01953125,0.0234375,-0.28515625,9.8046875
21,538000000,imu2_frame,-0.01495361328125,0.00054931640625,-0.00457763671875,0.9998779296875,-0.037109375,-0.0078125,0.021484375,0.0234375,-0.28515625,9.8046875
21,563000000,imu2_frame,-0.01495361328125,0.00054931640625,-0.00457763671875,0.9998779296875,-0.037109375,-0.0078125,0.021484375,0.0625,-0.4765625,9.84375
21,588000000,imu2_frame,-0.01495361328125,0.00054931640625,-0.00457763671875,0.9998779296875,0.20703125,0.052734375,0.130859375,0.0625,-0.4765625,9.84375
21,613000000,imu2_frame,-0.01495361328125,0.00054931640625,-0.00457763671875,0.9998779296875,-0.017578125,-0.0234375,0.017578125,0.0625,-0.4765625,9.84375
21,638000000,imu2_frame,-0.01495361328125,0.00054931640625,-0.00457763671875,0.9998779296875,-0.0546875,-0.01171875,0.017578125,0.0625,-0.4765625,9.84375
21,663000000,imu2_frame,-0.01495361328125,0.00054931640625,-0.00457763671875,0.9998779296875,-0.0546875,-0.01171875,0.017578125,0.0234375,-0.2109375,9.8046875
21,688000000,imu2_frame,-0.01495361328125,0.00054931640625,-0.00457763671875,0.9998779296875,0.0,-0.005859375,0.00390625,0.0234375,-0.2109375,9.8046875
21,713000000,imu2_frame,-0.01495361328125,0.00054931640625,-0.00457763671875,0.9998779296875,0.0,-0.005859375,0.00390625,0.1015625,-0.40234375,9.80859375
21,738000000,imu2_frame,-0.01495361328125,0.00054931640625,-0.00457763671875,0.9998779296875,-0.00390625,0.0,-0.001953125,0.1015625,-0.40234375,9.80859375
21,763000000,imu2_frame,-0.01495361328125,0.00054931640625,-0.00457763671875,0.9998779296875,-0.005859375,0.00390625,0.0,0.1015625,-0.40234375,9.80859375
21,788000000,imu2_frame,-0.01495361328125,0.00054931640625,-0.00457763671875,0.9998779296875,-0.005859375,0.00390625,0.0,0.0625,-0.36328125,9.80859375
21,813000000,imu2_frame,-0.01495361328125,0.00054931640625,-0.00457763671875,0.9998779296875,-0.009765625,0.0078125,-0.001953125,0.0625,-0.36328125,9.80859375
21,838000000,imu2_frame,-0.01495361328125,0.00054931640625,-0.00457763671875,0.9998779296875,-0.01953125,0.017578125,0.01171875,0.0625,-0.36328125,9.80859375
21,863000000,imu2_frame,-0.01495361328125,0.00054931640625,-0.00457763671875,0.9998779296875,-0.01953125,0.017578125,0.01171875,0.0234375,-0.4375,9.8046875
21,888000000,imu2_frame,-0.01495361328125,0.00054931640625,-0.00457763671875,0.9998779296875,-0.01953125,0.017578125,0.01171875,0.51953125,-3.12109375,9.84375
21,913000000,imu2_frame,-0.01495361328125,0.00054931640625,-0.00457763671875,0.9998779296875,-0.037109375,0.0078125,0.12109375,0.51953125,-3.12109375,9.84375
21,938000000,imu2_frame,-0.01495361328125,0.00054931640625,-0.00457763671875,0.9998779296875,0.001953125,-0.00390625,0.1015625,0.51953125,-3.12109375,9.84375
21,963000000,imu2_frame,-0.01495361328125,0.00054931640625,-0.00457763671875,0.9998779296875,0.001953125,-0.00390625,0.1015625,0.13671875,-0.24609375,9.80859375
21,988000000,imu2_frame,-0.01495361328125,0.00054931640625,-0.00457763671875,0.9998779296875,-0.0078125,0.009765625,0.009765625,0.13671875,-0.24609375,9.80859375
22,13000000,imu2_frame,-0.01495361328125,0.00054931640625,-0.00457763671875,0.9998779296875,0.0078125,0.001953125,0.001953125,0.13671875,-0.24609375,9.80859375
22,38000000,imu2_frame,-0.01495361328125,0.00054931640625,-0.00457763671875,0.9998779296875,0.01171875,0.001953125,0.0,0.13671875,-0.24609375,9.80859375
22,63000000,imu2_frame,-0.01495361328125,0.00054931640625,-0.00457763671875,0.9998779296875,0.01171875,0.001953125,0.0,0.13671875,-0.28515625,9.84375
22,88000000,imu2_frame,-0.01495361328125,0.00054931640625,-0.00457763671875,0.9998779296875,0.021484375,0.00390625,0.005859375,0.13671875,-0.28515625,9.84375
22,113000000,imu2_frame,-0.01495361328125,0.00054931640625,-0.00457763671875,0.9998779296875,0.021484375,0.00390625,0.005859375,0.0625,-0.32421875,9.8046875
22,138000000,imu2_frame,-0.01495361328125,0.00054931640625,-0.00457763671875,0.9998779296875,0.046875,0.00390625,0.0078125,0.0625,-0.32421875,9.8046875
22,163000000,imu2_frame,-0.01495361328125,0.00054931640625,-0.00457763671875,0.9998779296875,0.08984375,0.0546875,-0.0078125,0.0625,-0.32421875,9.8046875
22,188000000,imu2_frame,-0.01495361328125,0.00054931640625,-0.00457763671875,0.9998779296875,0.08984375,0.0546875,-0.0078125,0.0234375,-0.36328125,9.84765625
22,213000000,imu2_frame,-0.01495361328125,0.00054931640625,-0.00457763671875,0.9998779296875,-0.013671875,-0.00390625,-0.0703125,0.0234375,-0.36328125,9.84765625
22,238000000,imu2_frame,-0.01495361328125,0.00054931640625,-0.00457763671875,0.9998779296875,0.009765625,-0.005859375,0.033203125,0.0234375,-0.36328125,9.84765625
22,263000000,imu2_frame,-0.01495361328125,0.00054931640625,-0.00457763671875,0.9998779296875,0.009765625,-0.005859375,0.033203125,0.0234375,1.0546875,9.6875
22,288000000,imu2_frame,-0.01495361328125,0.00054931640625,-0.00457763671875,0.9998779296875,0.009765625,-0.005859375,0.033203125,-0.16796875,0.44140625,9.80859375
22,313000000,imu2_frame,-0.01495361328125,0.00054931640625,-0.00457763671875,0.9998779296875,0.08203125,0.009765625,-0.11328125,-0.16796875,0.44140625,9.80859375
22,338000000,imu2_frame,-0.01495361328125,0.00054931640625,-0.00457763671875,0.9998779296875,-0.013671875,0.013671875,-0.046875,-0.16796875,0.44140625,9.80859375
22,363000000,imu2_frame,-0.01495361328125,0.00054931640625,-0.00457763671875,0.9998779296875,-0.013671875,0.013671875,-0.046875,-0.0546875,-0.40234375,9.8828125
22,388000000,imu2_frame,-0.01495361328125,0.00054931640625,-0.00457763671875,0.9998779296875,0.013671875,-0.0390625,0.091796875,-0.0546875,-0.40234375,9.8828125
22,413000000,imu2_frame,-0.01495361328125,0.00054931640625,-0.00457763671875,0.9998779296875,-0.044921875,0.04296875,0.025390625,-0.0546875,-0.40234375,9.8828125
22,438000000,imu2_frame,-0.01495361328125,0.00054931640625,-0.00457763671875,0.9998779296875,-0.001953125,-0.044921875,-0.009765625,-0.0546875,-0.40234375,9.8828125
22,463000000,imu2_frame,-0.01495361328125,0.00054931640625,-0.00457763671875,0.9998779296875,-0.001953125,-0.044921875,-0.009765625,0.1015625,-0.171875,9.84765625
22,488000000,imu2_frame,-0.01495361328125,0.00054931640625,-0.00457763671875,0.9998779296875,-0.0078125,-0.015625,-0.32421875,0.1015625,-0.171875,9.84765625
22,513000000,imu2_frame,-0.01495361328125,0.00054931640625,-0.00457763671875,0.9998779296875,-0.0078125,-0.015625,-0.32421875,0.0625,-0.1328125,9.8828125
22,538000000,imu2_frame,-0.01495361328125,0.00054931640625,-0.00457763671875,0.9998779296875,0.015625,0.01171875,-0.19140625,0.0625,-0.1328125,9.8828125
22,563000000,imu2_frame,-0.01495361328125,0.00054931640625,-0.00457763671875,0.9998779296875,0.0,-0.005859375,-0.123046875,0.0625,-0.1328125,9.8828125
22,588000000,imu2_frame,-0.01495361328125,0.00054931640625,-0.00457763671875,0.9998779296875,0.0,-0.005859375,-0.123046875,0.0234375,-0.2109375,9.8046875
22,613000000,imu2_frame,-0.01495361328125,0.00054931640625,-0.00457763671875,0.9998779296875,-0.037109375,-0.001953125,-0.060546875,0.0234375,-0.2109375,9.8046875
22,638000000,imu2_frame,-0.01495361328125,0.00054931640625,-0.00457763671875,0.9998779296875,0.013671875,0.0078125,-0.052734375,0.0234375,-0.2109375,9.8046875
22,663000000,imu2_frame,-0.01495361328125,0.00054931640625,-0.00457763671875,0.9998779296875,0.013671875,0.0078125,-0.052734375,0.0234375,-0.40234375,9.84765625
22,688000000,imu2_frame,-0.01495361328125,0.00054931640625,-0.00457763671875,0.9998779296875,0.013671875,0.0078125,-0.052734375,-0.015625,0.09765625,9.765625
22,713000000,imu2_frame,-0.01495361328125,0.00054931640625,-0.00457763671875,0.9998779296875,0.00390625,0.009765625,-0.119140625,-0.015625,0.09765625,9.765625
22,738000000,imu2_frame,-0.01495361328125,0.00054931640625,-0.00457763671875,0.9998779296875,-0.001953125,-0.001953125,-0.125,-0.015625,0.09765625,9.765625
22,763000000,imu2_frame,-0.01495361328125,0.00054931640625,-0.00457763671875,0.9998779296875,-0.001953125,-0.001953125,-0.125,0.0625,-0.4765625,9.80859375
22,788000000,imu2_frame,-0.01495361328125,0.00054931640625,-0.00457763671875,0.9998779296875,0.005859375,-0.005859375,-0.03515625,0.0625,-0.4765625,9.80859375
22,813000000,imu2_frame,-0.01495361328125,0.00054931640625,-0.00457763671875,0.9998779296875,0.005859375,-0.005859375,-0.03515625,0.0234375,-0.24609375,9.8046875
22,838000000,imu2_frame,-0.01495361328125,0.00054931640625,-0.00457763671875,0.9998779296875,0.013671875,-0.001953125,-0.1015625,0.0234375,-0.24609375,9.8046875
22,863000000,imu2_frame,-0.01495361328125,0.00054931640625,-0.00457763671875,0.9998779296875,0.013671875,-0.001953125,-0.1015625,-0.015625,-0.01953125,9.80859375
22,888000000,imu2_frame,-0.01495361328125,0.00054931640625,-0.00457763671875,0.9998779296875,0.013671875,-0.001953125,-0.1015625,-0.015625,-0.515625,9.8046875
22,913000000,imu2_frame,-0.01495361328125,0.00054931640625,-0.00457763671875,0.9998779296875,0.013671875,-0.001953125,-0.1015625,-0.015625,-0.2109375,9.80859375
22,938000000,imu2_frame,-0.01495361328125,0.00054931640625,-0.00457763671875,0.9998779296875,-0.005859375,-0.013671875,-0.158203125,-0.015625,-0.2109375,9.80859375
22,963000000,imu2_frame,-0.01495361328125,0.00054931640625,-0.00457763671875,0.9998779296875,-0.005859375,-0.013671875,-0.158203125,-0.015625,-0.4375,9.84375
22,988000000,imu2_frame,-0.01495361328125,0.00054931640625,-0.00457763671875,0.9998779296875,-0.005859375,-0.013671875,-0.158203125,-0.12890625,-0.1328125,9.8046875
23,13000000,imu2_frame,-0.01495361328125,0.00054931640625,-0.00457763671875,0.9998779296875,0.015625,0.00390625,-0.189453125,-0.12890625,-0.1328125,9.8046875
23,38000000,imu2_frame,-0.01495361328125,0.00054931640625,-0.00457763671875,0.9998779296875,-0.033203125,-0.0078125,-0.154296875,-0.12890625,-0.1328125,9.8046875
23,63000000,imu2_frame,-0.01495361328125,0.00054931640625,-0.00457763671875,0.9998779296875,-0.033203125,-0.0078125,-0.154296875,-0.0546875,-0.171875,9.73046875
23,88000000,imu2_frame,-0.01495361328125,0.00054931640625,-0.00457763671875,0.9998779296875,-0.033203125,-0.0078125,-0.154296875,0.0234375,-0.36328125,9.8046875
23,113000000,imu2_frame,-0.01495361328125,0.00054931640625,-0.00457763671875,0.9998779296875,0.025390625,-0.005859375,-0.1171875,0.0234375,-0.36328125,9.8046875
23,138000000,imu2_frame,-0.01495361328125,0.00054931640625,-0.00457763671875,0.9998779296875,0.07421875,0.009765625,-0.1484375,0.0234375,-0.36328125,9.8046875
23,163000000,imu2_frame,-0.01495361328125,0.00054931640625,-0.00457763671875,0.9998779296875,0.07421875,0.009765625,-0.1484375,-0.015625,-0.2109375,9.84375
23,188000000,imu2_frame,-0.01495361328125,0.00054931640625,-0.00457763671875,0.9998779296875,0.00390625,-0.021484375,-0.109375,-0.015625,-0.2109375,9.84375
23,213000000,imu2_frame,-0.01495361328125,0.00054931640625,-0.00457763671875,0.9998779296875,0.00390625,-0.021484375,-0.109375,-0.015625,-0.1328125,9.80859375
23,238000000,imu2_frame,-0.01495361328125,0.00054931640625,-0.00457763671875,0.9998779296875,0.02734375,0.01171875,-0.16796875,-0.015625,-0.1328125,9.80859375
23,263000000,imu2_frame,-0.01495361328125,0.00054931640625,-0.00457763671875,0.9998779296875,0.02734375,0.01171875,-0.16796875,-0.015625,-0.01953125,9.84375
23,288000000,imu2_frame,-0.01495361328125,0.00054931640625,-0.00457763671875,0.9998779296875,0.02734375,0.01171875,-0.16796875,-0.015625,-0.40234375,9.80859375
23,313000000,imu2_frame,-0.01495361328125,0.00054931640625,-0.00457763671875,0.9998779296875,0.02734375,0.01171875,-0.16796875,-0.015625,-0.2109375,9.84375
23,338000000,imu2_frame,-0.01495361328125,0.00054931640625,-0.00457763671875,0.9998779296875,-0.009765625,0.013671875,-0.111328125,-0.015625,-0.2109375,9.84375
23,363000000,imu2_frame,-0.01495361328125,0.00054931640625,-0.00457763671875,0.9998779296875,-0.009765625,0.013671875,-0.111328125,0.0625,-0.24609375,9.80859375
23,388000000,imu2_frame,-0.01495361328125,0.00054931640625,-0.00457763671875,0.9998779296875,-0.009765625,0.013671875,-0.111328125,-0.015625,0.01953125,9.84375
23,413000000,imu2_frame,-0.01495361328125,0.00054931640625,-0.00457763671875,0.9998779296875,0.01171875,0.005859375,-0.048828125,-0.015625,0.01953125,9.84375
23,438000000,imu2_frame,-0.01495361328125,0.00054931640625,-0.00457763671875,0.9998779296875,-0.01171875,-0.01171875,-0.0390625,-0.015625,0.01953125,9.84375
23,463000000,imu2_frame,-0.01495361328125,0.00054931640625,-0.00457763671875,0.9998779296875,-0.01171875,-0.01171875,-0.0390625,-0.015625,-0.2109375,9.80859375
23,488000000,imu2_frame,-0.01495361328125,0.00054931640625,-0.00457763671875,0.9998779296875,-0.01171875,-0.01171875,-0.0390625,-0.015625,-0.2109375,9.80859375
23,513000000,imu2_frame,-0.01495361328125,0.00054931640625,-0.00457763671875,0.9998779296875,0.0,-0.001953125,-0.029296875,-0.015625,-0.2109375,9.80859375
23,538000000,imu2_frame,-0.01495361328125,0.00054931640625,-0.00457763671875,0.9998779296875,-0.001953125,0.001953125,-0.033203125,-0.015625,-0.2109375,9.80859375
23,563000000,imu2_frame,-0.01495361328125,0.00054931640625,-0.00457763671875,0.9998779296875,-0.001953125,0.001953125,-0.033203125,-0.015625,-0.28515625,9.80859375
23,588000000,imu2_frame,-0.01495361328125,0.00054931640625,-0.00457763671875,0.9998779296875,0.001953125,0.0,-0.033203125,-0.015625,-0.28515625,9.80859375
23,613000000,imu2_frame,-0.01495361328125,0.00054931640625,-0.00457763671875,0.9998779296875,0.001953125,0.0,-0.033203125,0.0625,-0.24609375,9.80859375
23,638000000,imu2_frame,-0.01495361328125,0.00054931640625,-0.00457763671875,0.9998779296875,0.0,0.0,-0.0234375,0.0625,-0.24609375,9.80859375
23,663000000,imu2_frame,-0.01495361328125,0.00054931640625,-0.00457763671875,0.9998779296875,0.0,0.0,-0.0234375,-0.015625,-0.24609375,9.80859375
23,688000000,imu2_frame,-0.01495361328125,0.00054931640625,-0.00457763671875,0.9998779296875,0.0,0.0,-0.0234375,0.0234375,-0.24609375,9.8046875
23,713000000,imu2_frame,-0.01495361328125,0.00054931640625,-0.00457763671875,0.9998779296875,0.0,0.0,-0.0234375,0.0234375,-0.2109375,9.8046875
23,738000000,imu2_frame,-0.01495361328125,0.00054931640625,-0.00457763671875,0.9998779296875,0.0,-0.001953125,-0.033203125,0.0234375,-0.2109375,9.8046875
23,763000000,imu2_frame,-0.01495361328125,0.00054931640625,-0.00457763671875,0.9998779296875,0.0,-0.001953125,-0.033203125,-0.08984375,1.1328125,9.765625
23,788000000,imu2_frame,-0.01495361328125,0.00054931640625,-0.00457763671875,0.9998779296875,0.0,-0.001953125,-0.033203125,0.0234375,-1.16796875,9.8046875
23,813000000,imu2_frame,-0.01495361328125,0.00054931640625,-0.00457763671875,0.9998779296875,0.0,-0.001953125,-0.033203125,-0.16796875,-0.4375,9.8046875
23,838000000,imu2_frame,-0.01495361328125,0.00054931640625,-0.00457763671875,0.9998779296875,-0.017578125,0.01953125,-0.041015625,-0.16796875,-0.4375,9.8046875
23,863000000,imu2_frame,-0.01495361328125,0.00054931640625,-0.00457763671875,0.9998779296875,-0.017578125,0.01953125,-0.041015625,-0.08984375,0.09765625,9.92578125
23,888000000,imu2_frame,-0.01495361328125,0.00054931640625,-0.00457763671875,0.9998779296875,-0.017578125,0.01953125,-0.041015625,0.0625,0.01953125,9.84375
23,913000000,imu2_frame,-0.01495361328125,0.00054931640625,-0.00457763671875,0.9998779296875,0.017578125,-0.021484375,0.115234375,0.0625,0.01953125,9.84375
23,938000000,imu2_frame,-0.01495361328125,0.00054931640625,-0.00457763671875,0.9998779296875,-0.080078125,0.044921875,0.05859375,0.0625,0.01953125,9.84375
23,963000000,imu2_frame,-0.01495361328125,0.00054931640625,-0.00457763671875,0.9998779296875,-0.080078125,0.044921875,0.05859375,0.0625,-0.32421875,9.8046875
23,988000000,imu2_frame,-0.01495361328125,0.00054931640625,-0.00457763671875,0.9998779296875,0.01171875,-0.033203125,-0.1171875,0.0625,-0.32421875,9.8046875
24,13000000,imu2_frame,-0.01495361328125,0.00054931640625,-0.00457763671875,0.9998779296875,0.01171875,-0.033203125,-0.1171875,0.0234375,-0.171875,9.80859375
24,38000000,imu2_frame,-0.01495361328125,0.00054931640625,-0.00457763671875,0.9998779296875,-0.025390625,-0.017578125,-0.103515625,0.0234375,-0.171875,9.80859375
24,63000000,imu2_frame,-0.01495361328125,0.00054931640625,-0.00457763671875,0.9998779296875,-0.025390625,-0.017578125,-0.103515625,0.0234375,-0.40234375,9.88671875
24,88000000,imu2_frame,-0.01495361328125,0.00054931640625,-0.00457763671875,0.9998779296875,-0.025390625,-0.017578125,-0.103515625,0.0625,-0.4765625,9.76953125
24,113000000,imu2_frame,-0.01495361328125,0.00054931640625,-0.00457763671875,0.9998779296875,-0.025390625,-0.017578125,-0.103515625,-0.08984375,-0.515625,9.84375
24,138000000,imu2_frame,-0.01495361328125,0.00054931640625,-0.00457763671875,0.9998779296875,0.046875,0.0078125,-0.12890625,-0.08984375,-0.515625,9.84375
24,163000000,imu2_frame,-0.01495361328125,0.00054931640625,-0.00457763671875,0.9998779296875,0.046875,0.0078125,-0.12890625,0.0234375,-0.66796875,9.84765625
24,188000000,imu2_frame,-0.01495361328125,0.00054931640625,-0.00457763671875,0.9998779296875,0.046875,0.0078125,-0.12890625,-0.0546875,0.05859375,9.8828125
24,213000000,imu2_frame,-0.01495361328125,0.00054931640625,-0.00457763671875,0.9998779296875,-0.033203125,0.03125,0.044921875,-0.0546875,0.05859375,9.8828125
24,238000000,imu2_frame,-0.01495361328125,0.00054931640625,-0.00457763671875,0.9998779296875,-0.0234375,-0.015625,0.0703125,-0.0546875,0.05859375,9.8828125
24,263000000,imu2_frame,-0.01495361328125,0.00054931640625,-0.00457763671875,0.9998779296875,-0.0234375,-0.015625,0.0703125,0.0234375,0.09765625,9.6875
24,288000000,imu2_frame,-0.01495361328125,0.00054931640625,-0.00457763671875,0.9998779296875,-0.0234375,-0.015625,0.0703125,0.0625,0.01953125,9.84375
24,313000000,imu2_frame,-0.01495361328125,0.00054931640625,-0.00457763671875,0.9998779296875,0.0,-0.017578125,0.013671875,0.0625,0.01953125,9.84375
24,338000000,imu2_frame,-0.01495361328125,0.00054931640625,-0.00457763671875,0.9998779296875,-0.0078125,0.021484375,-0.01171875,0.0625,0.01953125,9.84375
24,363000000,imu2_frame,-0.01495361328125,0.00054931640625,-0.00457763671875,0.9998779296875,-0.0078125,0.021484375,-0.01171875,0.0625,0.13671875,9.8046875
24,388000000,imu2_frame,-0.01495361328125,0.00054931640625,-0.00457763671875,0.9998779296875,-0.015625,0.00390625,-0.064453125,0.0625,0.13671875,9.8046875
24,413000000,imu2_frame,-0.01495361328125,0.00054931640625,-0.00457763671875,0.9998779296875,-0.015625,0.00390625,-0.064453125,0.0625,-0.1328125,9.76953125
24,438000000,imu2_frame,-0.01495361328125,0.00054931640625,-0.00457763671875,0.9998779296875,-0.005859375,-0.001953125,-0.03125,0.0625,-0.1328125,9.76953125
24,463000000,imu2_frame,-0.01495361328125,0.00054931640625,-0.00457763671875,0.9998779296875,-0.005859375,-0.001953125,-0.03125,0.0234375,-0.24609375,9.8046875
24,488000000,imu2_frame,-0.01495361328125,0.00054931640625,-0.00457763671875,0.9998779296875,-0.005859375,-0.001953125,-0.03125,0.0234375,-0.24609375,9.8046875
24,513000000,imu2_frame,-0.01495361328125,0.00054931640625,-0.00457763671875,0.9998779296875,-0.005859375,-0.001953125,-0.03125,0.0234375,-0.28515625,9.8046875
24,538000000,imu2_frame,-0.01495361328125,0.00054931640625,-0.00457763671875,0.9998779296875,0.0,-0.001953125,-0.001953125,0.0234375,-0.28515625,9.8046875
24,563000000,imu2_frame,-0.01409912109375,-0.00067138671875,-0.08905029296875,0.99591064453125,0.0,-0.001953125,-0.001953125,0.0234375,-0.28515625,9.8046875
24,588000000,imu2_frame,-0.01409912109375,-0.00067138671875,-0.08905029296875,0.99591064453125,0.0,-0.001953125,-0.001953125,-0.015625,-0.2109375,9.84375
24,613000000,imu2_frame,-0.01409912109375,-0.00067138671875,-0.08905029296875,0.99591064453125,0.0,0.0,-0.013671875,-0.015625,-0.2109375,9.84375
24,638000000,imu2_frame,-0.01409912109375,-0.00067138671875,-0.08905029296875,0.99591064453125,-0.001953125,-0.001953125,-0.017578125,-0.015625,-0.2109375,9.84375
24,663000000,imu2_frame,-0.01409912109375,-0.00067138671875,-0.08905029296875,0.99591064453125,0.0,0.0,-0.015625,-0.015625,-0.2109375,9.84375
24,688000000,imu2_frame,-0.01409912109375,-0.00067138671875,-0.08905029296875,0.99591064453125,0.0,0.0,-0.015625,-0.015625,-0.24609375,9.80859375
24,713000000,imu2_frame,-0.01409912109375,-0.00067138671875,-0.08905029296875,0.99591064453125,0.001953125,-0.001953125,-0.015625,-0.015625,-0.24609375,9.80859375
24,738000000,imu2_frame,-0.01409912109375,-0.00067138671875,-0.08905029296875,0.99591064453125,0.0,0.0,-0.01953125,-0.015625,-0.24609375,9.80859375
24,763000000,imu2_frame,-0.01409912109375,-0.00067138671875,-0.08905029296875,0.99591064453125,0.0,0.0,-0.01953125,-0.015625,-0.24609375,9.80859375
24,788000000,imu2_frame,-0.01409912109375,-0.00067138671875,-0.08905029296875,0.99591064453125,0.005859375,-0.001953125,-0.01171875,-0.015625,-0.24609375,9.80859375
24,813000000,imu2_frame,-0.01409912109375,-0.00067138671875,-0.08905029296875,0.99591064453125,0.005859375,-0.001953125,-0.01171875,-0.015625,-0.24609375,9.80859375
24,838000000,imu2_frame,-0.01409912109375,-0.00067138671875,-0.08905029296875,0.99591064453125,0.001953125,-0.005859375,-0.1328125,-0.015625,-0.24609375,9.80859375
24,863000000,imu2_frame,-0.01409912109375,-0.00067138671875,-0.08905029296875,0.99591064453125,0.001953125,-0.005859375,-0.1328125,0.6171875,-4.0,17.84375
24,888000000,imu2_frame,-0.01409912109375,-0.00067138671875,-0.08905029296875,0.99591064453125,0.001953125,-0.005859375,-0.1328125,-0.55078125,-0.90234375,9.59375
24,913000000,imu2_frame,-0.01409912109375,-0.00067138671875,-0.08905029296875,0.99591064453125,-0.015625,0.005859375,0.021484375,-0.55078125,-0.90234375,9.59375
24,938000000,imu2_frame,-0.01409912109375,-0.00067138671875,-0.08905029296875,0.99591064453125,-0.001953125,-0.01171875,-0.111328125,-0.55078125,-0.90234375,9.59375
24,963000000,imu2_frame,-0.01409912109375,-0.00067138671875,-0.08905029296875,0.99591064453125,0.033203125,0.00390625,-0.115234375,-0.55078125,-0.90234375,9.59375
24,988000000,imu2_frame,-0.01409912109375,-0.00067138671875,-0.08905029296875,0.99591064453125,0.033203125,0.00390625,-0.115234375,0.0625,-0.49609375,9.7578125
25,13000000,imu2_frame,-0.01409912109375,-0.00067138671875,-0.08905029296875,0.99591064453125,0.033203125,-0.0234375,-0.044921875,0.0625,-0.49609375,9.7578125
25,38000000,imu2_frame,-0.01409912109375,-0.00067138671875,-0.08905029296875,0.99591064453125,0.08203125,-0.21484375,-0.04296875,0.0625,-0.49609375,9.7578125
25,88000000,imu2_frame,-0.01409912109375,-0.00067138671875,-0.08905029296875,0.99591064453125,0.08203125,-0.21484375,-0.04296875,0.046875,-0.171875,9.55859375
25,113000000,imu2_frame,-0.01409912109375,-0.00067138671875,-0.08905029296875,0.99591064453125,0.044921875,-0.021484375,-0.046875,0.046875,-0.171875,9.55859375
25,138000000,imu2_frame,-0.01409912109375,-0.00067138671875,-0.08905029296875,0.99591064453125,0.044921875,-0.021484375,-0.046875,0.0625,-0.0546875,9.19140625
25,163000000,imu2_frame,-0.01177978515625,-0.0030517578125,-0.23187255859375,0.98834228515625,0.044921875,-0.021484375,-0.046875,0.0625,-0.0546875,9.19140625
25,188000000,imu2_frame,-0.01177978515625,-0.0030517578125,-0.23187255859375,0.98834228515625,0.0703125,-0.0546875,-0.390625,0.0625,-0.0546875,9.19140625
25,213000000,imu2_frame,-0.01177978515625,-0.0030517578125,-0.23187255859375,0.98834228515625,0.0703125,-0.0546875,-0.390625,-0.015625,-0.4609375,9.51953125
25,238000000,imu2_frame,-0.01177978515625,-0.0030517578125,-0.23187255859375,0.98834228515625,0.009765625,0.001953125,-0.1640625,-0.015625,-0.4609375,9.51953125
25,263000000,imu2_frame,-0.01177978515625,-0.0030517578125,-0.23187255859375,0.98834228515625,0.009765625,0.001953125,-0.1640625,-0.015625,-0.4609375,9.51953125
25,288000000,imu2_frame,-0.01177978515625,-0.0030517578125,-0.23187255859375,0.98834228515625,0.009765625,0.001953125,-0.1640625,0.0625,-0.01953125,9.80859375
25,338000000,imu2_frame,-0.01177978515625,-0.0030517578125,-0.23187255859375,0.98834228515625,0.0078125,-0.001953125,-0.037109375,0.0625,-0.01953125,9.80859375
25,363000000,imu2_frame,-0.01177978515625,-0.0030517578125,-0.23187255859375,0.98834228515625,-0.02734375,-0.009765625,0.017578125,0.0625,-0.01953125,9.80859375
25,388000000,imu2_frame,-0.01177978515625,-0.0030517578125,-0.23187255859375,0.98834228515625,-0.02734375,-0.009765625,0.017578125,-0.015625,0.01953125,9.80859375
25,413000000,imu2_frame,-0.01177978515625,-0.0030517578125,-0.23187255859375,0.98834228515625,-0.025390625,-0.01171875,-0.400390625,-0.015625,0.01953125,9.80859375
25,438000000,imu2_frame,-0.01177978515625,-0.0030517578125,-0.23187255859375,0.98834228515625,0.033203125,-0.03125,-0.267578125,-0.015625,0.01953125,9.80859375
25,463000000,imu2_frame,-0.01104736328125,-0.0015869140625,-0.11956787109375,0.98492431640625,0.033203125,-0.03125,-0.267578125,-0.015625,0.01953125,9.80859375
25,513000000,imu2_frame,-0.01104736328125,-0.0015869140625,-0.11956787109375,0.98492431640625,0.0234375,-0.021484375,-0.107421875,-0.015625,0.01953125,9.80859375
25,538000000,imu2_frame,-0.01104736328125,-0.0015869140625,-0.11956787109375,0.98492431640625,0.041015625,0.0078125,-0.38671875,-0.015625,0.01953125,9.80859375
25,563000000,imu2_frame,-0.01104736328125,-0.0015869140625,-0.11956787109375,0.98492431640625,0.041015625,0.0078125,-0.38671875,0.0234375,-0.40234375,9.5546875
25,588000000,imu2_frame,-0.01104736328125,-0.0015869140625,-0.11956787109375,0.98492431640625,-0.029296875,0.001953125,-0.064453125,0.0234375,-0.40234375,9.5546875
25,638000000,imu2_frame,-0.01104736328125,-0.0015869140625,-0.11956787109375,0.98492431640625,0.00390625,-0.0234375,-0.025390625,0.0234375,-0.40234375,9.5546875
25,688000000,imu2_frame,-0.01104736328125,-0.0015869140625,-0.11956787109375,0.98492431640625,0.00390625,-0.0234375,-0.025390625,-0.0546875,-0.0546875,9.5546875
25,713000000,imu2_frame,-0.01104736328125,-0.0015869140625,-0.11956787109375,0.98492431640625,0.00390625,-0.0234375,-0.025390625,-0.0546875,0.01953125,9.8828125
25,738000000,imu2_frame,-0.01104736328125,-0.0015869140625,-0.11956787109375,0.98492431640625,-0.017578125,0.009765625,-0.248046875,-0.0546875,0.01953125,9.8828125
25,813000000,imu2_frame,-0.01104736328125,-0.0015869140625,-0.11956787109375,0.98492431640625,-0.017578125,0.009765625,-0.248046875,-0.015625,-0.86328125,17.80859375
25,863000000,imu2_frame,-0.01104736328125,-0.0015869140625,-0.11956787109375,0.98492431640625,-0.02734375,-0.0078125,-0.28125,-0.015625,-0.86328125,17.80859375
25,888000000,imu2_frame,-0.01104736328125,-0.0015869140625,-0.11956787109375,0.98492431640625,-0.02734375,-0.0078125,-0.28125,-0.21484375,-0.59375,9.59765625
25,938000000,imu2_frame,-0.01104736328125,-0.0015869140625,-0.11956787109375,0.98492431640625,-0.00390625,-0.015625,-0.193359375,-0.21484375,-0.59375,9.59765625
26,38000000,imu2_frame,-0.01104736328125,-0.0015869140625,-0.11956787109375,0.98492431640625,-0.025390625,-0.005859375,-0.39453125,-0.21484375,-0.59375,9.59765625
26,88000000,imu2_frame,-0.01104736328125,-0.0015869140625,-0.11956787109375,0.98492431640625,-0.025390625,-0.005859375,-0.39453125,-0.1171875,-0.421875,9.5546875
26,138000000,imu2_frame,-0.01104736328125,-0.0015869140625,-0.11956787109375,0.98492431640625,-0.0390625,0.015625,-0.4453125,-0.1171875,-0.421875,9.5546875
26,163000000,imu2_frame,-0.01220703125,-0.00347900390625,-0.810302734375,0.99139404296875,-0.0390625,0.015625,-0.4453125,-0.1171875,-0.421875,9.5546875
26,263000000,imu2_frame,-0.01220703125,-0.00347900390625,-0.810302734375,0.99139404296875,0.0,0.064453125,-0.189453125,-0.1171875,-0.421875,9.5546875
26,288000000,imu2_frame,-0.01220703125,-0.00347900390625,-0.810302734375,0.99139404296875,0.0,0.064453125,-0.189453125,0.0234375,-0.78515625,9.5546875
26,338000000,imu2_frame,-0.01220703125,-0.00347900390625,-0.810302734375,0.99139404296875,0.0,0.064453125,-0.189453125,-0.015625,0.0,17.55859375
26,388000000,imu2_frame,-0.01220703125,-0.00347900390625,-0.810302734375,0.99139404296875,0.0,0.064453125,-0.189453125,0.25,-0.953125,9.375
26,688000000,imu2_frame,-0.01220703125,-0.00347900390625,-0.810302734375,0.99139404296875,0.0,0.064453125,-0.189453125,0.25,-0.953125,9.375
26,813000000,imu2_frame,-0.01220703125,-0.00347900390625,-0.810302734375,0.99139404296875,0.0,0.064453125,-0.189453125,-0.0546875,-0.01953125,9.55859375
26,838000000,imu2_frame,-0.01220703125,-0.00347900390625,-0.810302734375,0.99139404296875,-0.03125,0.0390625,0.017578125,-0.0546875,-0.01953125,9.55859375
26,863000000,imu2_frame,-0.01220703125,-0.00347900390625,-0.810302734375,0.99139404296875,-0.03125,0.0390625,0.017578125,-0.015625,-0.09375,9.84375
26,888000000,imu2_frame,-0.01220703125,-0.00347900390625,-0.810302734375,0.99139404296875,-0.03125,0.0390625,0.017578125,0.0625,-0.01953125,9.76953125
26,913000000,imu2_frame,-0.01220703125,-0.00347900390625,-0.810302734375,0.99139404296875,-0.03125,0.0390625,0.017578125,-0.08984375,-0.32421875,9.84375
26,938000000,imu2_frame,-0.01220703125,-0.00347900390625,-0.810302734375,0.99139404296875,0.03515625,-0.02734375,-0.07421875,-0.08984375,-0.32421875,9.84375
26,963000000,imu2_frame,-0.01220703125,-0.00347900390625,-0.810302734375,0.99139404296875,-0.064453125,-0.017578125,-0.10546875,-0.08984375,-0.32421875,9.84375
26,988000000,imu2_frame,-0.01220703125,-0.00347900390625,-0.810302734375,0.99139404296875,-0.064453125,-0.017578125,-0.10546875,0.0234375,-0.2109375,9.8046875
27,13000000,imu2_frame,-0.01220703125,-0.00347900390625,-0.810302734375,0.99139404296875,-0.005859375,-0.025390625,-0.171875,0.0234375,-0.2109375,9.8046875
27,38000000,imu2_frame,-0.01220703125,-0.00347900390625,-0.810302734375,0.99139404296875,-0.005859375,-0.025390625,-0.171875,0.0625,-0.40234375,9.80859375
27,63000000,imu2_frame,-0.01220703125,-0.00347900390625,-0.810302734375,0.99139404296875,-0.025390625,0.02734375,-0.037109375,0.0625,-0.40234375,9.80859375
27,88000000,imu2_frame,-0.01220703125,-0.00347900390625,-0.810302734375,0.99139404296875,-0.025390625,0.02734375,-0.037109375,0.0234375,-0.28515625,9.8046875
27,113000000,imu2_frame,-0.01220703125,-0.00347900390625,-0.810302734375,0.99139404296875,-0.025390625,0.02734375,-0.037109375,-0.0546875,-0.01953125,9.80859375
27,138000000,imu2_frame,-0.01220703125,-0.00347900390625,-0.810302734375,0.99139404296875,-0.03125,-0.001953125,-0.091796875,-0.0546875,-0.01953125,9.80859375
27,163000000,imu2_frame,-0.01220703125,-0.00347900390625,-0.810302734375,0.99139404296875,-0.021484375,0.001953125,-0.109375,-0.0546875,-0.01953125,9.80859375
27,188000000,imu2_frame,-0.01220703125,-0.00347900390625,-0.810302734375,0.99139404296875,-0.021484375,0.001953125,-0.109375,0.0234375,-0.24609375,9.84765625
27,213000000,imu2_frame,-0.01220703125,-0.00347900390625,-0.810302734375,0.99139404296875,-0.021484375,0.001953125,-0.109375,0.0234375,-0.171875,9.84375
27,238000000,imu2_frame,-0.01220703125,-0.00347900390625,-0.810302734375,0.99139404296875,-0.009765625,-0.0078125,-0.0625,0.0234375,-0.171875,9.84375
27,263000000,imu2_frame,-0.01220703125,-0.00347900390625,-0.810302734375,0.99139404296875,0.015625,0.01171875,-0.07421875,0.0234375,-0.171875,9.84375
27,288000000,imu2_frame,-0.01220703125,-0.00347900390625,-0.810302734375,0.99139404296875,0.015625,0.01171875,-0.07421875,-0.015625,-0.28515625,9.80859375
27,313000000,imu2_frame,-0.01220703125,-0.00347900390625,-0.810302734375,0.99139404296875,0.015625,0.01171875,-0.07421875,-0.0546875,-0.32421875,9.84765625
27,338000000,imu2_frame,-0.01220703125,-0.00347900390625,-0.810302734375,0.99139404296875,-0.025390625,0.005859375,-0.05078125,-0.0546875,-0.32421875,9.84765625
27,363000000,imu2_frame,-0.01220703125,-0.00347900390625,-0.810302734375,0.99139404296875,0.017578125,0.013671875,-0.01953125,-0.0546875,-0.32421875,9.84765625
27,388000000,imu2_frame,-0.01220703125,-0.00347900390625,-0.810302734375,0.99139404296875,0.017578125,0.013671875,-0.01953125,-0.015625,-0.171875,9.88671875
27,413000000,imu2_frame,-0.01220703125,-0.00347900390625,-0.810302734375,0.99139404296875,-0.021484375,-0.0078125,-0.0546875,-0.015625,-0.171875,9.88671875
27,438000000,imu2_frame,-0.01220703125,-0.00347900390625,-0.810302734375,0.99139404296875,-0.021484375,-0.0078125,-0.0546875,-0.015625,-0.2109375,9.80859375
27,463000000,imu2_frame,-0.01220703125,-0.00347900390625,-0.810302734375,0.99139404296875,0.0234375,0.0234375,-0.068359375,-0.015625,-0.2109375,9.80859375
27,488000000,imu2_frame,-0.01220703125,-0.00347900390625,-0.810302734375,0.99139404296875,0.0234375,0.0234375,-0.068359375,-0.12890625,-0.28515625,9.84765625
27,513000000,imu2_frame,-0.01220703125,-0.00347900390625,-0.810302734375,0.99139404296875,0.0234375,0.0234375,-0.068359375,-0.0546875,0.2109375,9.80859375
27,538000000,imu2_frame,-0.01220703125,-0.00347900390625,-0.810302734375,0.99139404296875,-0.037109375,-0.0234375,-0.005859375,-0.0546875,0.2109375,9.80859375
27,563000000,imu2_frame,-0.01220703125,-0.00347900390625,-0.810302734375,0.99139404296875,0.03515625,0.01171875,-0.02734375,-0.0546875,0.2109375,9.80859375
27,588000000,imu2_frame,-0.01220703125,-0.00347900390625,-0.810302734375,0.99139404296875,0.03515625,0.01171875,-0.02734375,-0.0546875,-0.28515625,9.80859375
27,613000000,imu2_frame,-0.01220703125,-0.00347900390625,-0.810302734375,0.99139404296875,0.03515625,0.01171875,-0.02734375,-0.015625,-0.1328125,9.80859375
27,638000000,imu2_frame,-0.01220703125,-0.00347900390625,-0.810302734375,0.99139404296875,0.025390625,0.0078125,-0.046875,-0.015625,-0.1328125,9.80859375
27,663000000,imu2_frame,-0.01220703125,-0.00347900390625,-0.810302734375,0.99139404296875,0.017578125,0.0,-0.087890625,-0.015625,-0.1328125,9.80859375
27,688000000,imu2_frame,-0.01220703125,-0.00347900390625,-0.810302734375,0.99139404296875,0.017578125,0.0,-0.087890625,-0.015625,-0.01953125,9.84375
27,713000000,imu2_frame,-0.01220703125,-0.00347900390625,-0.810302734375,0.99139404296875,0.0078125,-0.0078125,-0.052734375,-0.015625,-0.01953125,9.84375
27,738000000,imu2_frame,-0.01220703125,-0.00347900390625,-0.810302734375,0.99139404296875,-0.015625,-0.005859375,-0.072265625,-0.015625,-0.01953125,9.84375
27,763000000,imu2_frame,-0.01220703125,-0.00347900390625,-0.810302734375,0.99139404296875,0.017578125,0.013671875,-0.142578125,-0.015625,-0.01953125,9.84375
27,788000000,imu2_frame,-0.01220703125,-0.00347900390625,-0.810302734375,0.99139404296875,0.017578125,0.013671875,-0.142578125,0.17578125,-0.6328125,9.8046875
27,813000000,imu2_frame,-0.01220703125,-0.00347900390625,-0.810302734375,0.99139404296875,0.0234375,-0.0078125,-0.02734375,0.17578125,-0.6328125,9.8046875
27,838000000,imu2_frame,-0.01220703125,-0.00347900390625,-0.810302734375,0.99139404296875,0.0234375,-0.0078125,-0.02734375,0.0234375,-0.09375,9.84765625
27,863000000,imu2_frame,-0.01220703125,-0.00347900390625,-0.810302734375,0.99139404296875,-0.0078125,0.01171875,-0.119140625,0.0234375,-0.09375,9.84765625
27,889000000,imu2_frame,-0.01220703125,-0.00347900390625,-0.810302734375,0.99139404296875,-0.0078125,0.01171875,-0.119140625,-0.015625,0.05859375,9.80859375
27,913000000,imu2_frame,-0.01220703125,-0.00347900390625,-0.810302734375,0.99139404296875,-0.0078125,0.01171875,-0.119140625,0.1015625,-0.1328125,9.84375
27,938000000,imu2_frame,-0.01220703125,-0.00347900390625,-0.810302734375,0.99139404296875,0.0234375,-0.0078125,-0.19140625,0.1015625,-0.1328125,9.84375
27,963000000,imu2_frame,-0.01220703125,-0.00347900390625,-0.810302734375,0.99139404296875,-0.013671875,0.009765625,-0.2265625,0.1015625,-0.1328125,9.84375
27,988000000,imu2_frame,-0.01220703125,-0.00347900390625,-0.810302734375,0.99139404296875,-0.013671875,0.009765625,-0.2265625,0.1015625,-0.09375,9.84375
28,13000000,imu2_frame,-0.01220703125,-0.00347900390625,-0.810302734375,0.99139404296875,-0.013671875,0.009765625,-0.2265625,0.13671875,-0.24609375,9.84375
28,38000000,imu2_frame,-0.01220703125,-0.00347900390625,-0.810302734375,0.99139404296875,-0.005859375,0.013671875,-0.12890625,0.13671875,-0.24609375,9.84375
28,63000000,imu2_frame,-0.01220703125,-0.00347900390625,-0.810302734375,0.99139404296875,0.013671875,-0.0078125,-0.021484375,0.13671875,-0.24609375,9.84375
28,88000000,imu2_frame,-0.01220703125,-0.00347900390625,-0.810302734375,0.99139404296875,0.013671875,-0.0078125,-0.021484375,0.13671875,-0.24609375,9.80859375
28,113000000,imu2_frame,-0.01220703125,-0.00347900390625,-0.810302734375,0.99139404296875,0.017578125,-0.001953125,-0.03515625,0.13671875,-0.24609375,9.80859375
28,138000000,imu2_frame,-0.01220703125,-0.00347900390625,-0.810302734375,0.99139404296875,-0.05859375,0.03125,0.03125,0.13671875,-0.24609375,9.80859375
28,163000000,imu2_frame,-0.01220703125,-0.00347900390625,-0.810302734375,0.99139404296875,-0.001953125,-0.00390625,-0.044921875,0.13671875,-0.24609375,9.80859375
28,188000000,imu2_frame,-0.01220703125,-0.00347900390625,-0.810302734375,0.99139404296875,-0.001953125,-0.00390625,-0.044921875,0.1015625,-0.40234375,9.80859375
28,213000000,imu2_frame,-0.01220703125,-0.00347900390625,-0.810302734375,0.99139404296875,-0.01171875,-0.015625,0.0,0.1015625,-0.40234375,9.80859375
28,238000000,imu2_frame,-0.01220703125,-0.00347900390625,-0.810302734375,0.99139404296875,-0.01171875,-0.015625,0.0,0.17578125,-0.4375,9.8046875
28,263000000,imu2_frame,-0.01220703125,-0.00347900390625,-0.810302734375,0.99139404296875,0.0234375,-0.017578125,-0.103515625,0.17578125,-0.4375,9.8046875
28,288000000,imu2_frame,-0.01220703125,-0.00347900390625,-0.810302734375,0.99139404296875,0.0234375,-0.017578125,-0.103515625,0.0625,-0.0546875,9.8046875
28,313000000,imu2_frame,-0.01220703125,-0.00347900390625,-0.810302734375,0.99139404296875,0.0234375,-0.017578125,-0.103515625,0.0625,-0.2109375,9.84375
28,338000000,imu2_frame,-0.01220703125,-0.00347900390625,-0.810302734375,0.99139404296875,-0.029296875,0.00390625,-0.12109375,0.0625,-0.2109375,9.84375
28,363000000,imu2_frame,-0.01220703125,-0.00347900390625,-0.810302734375,0.99139404296875,0.001953125,-0.00390625,-0.04296875,0.0625,-0.2109375,9.84375
28,388000000,imu2_frame,-0.01220703125,-0.00347900390625,-0.810302734375,0.99139404296875,0.001953125,-0.00390625,-0.04296875,0.0234375,-0.36328125,9.84765625
28,413000000,imu2_frame,-0.01220703125,-0.00347900390625,-0.810302734375,0.99139404296875,0.001953125,-0.00390625,-0.04296875,-0.015625,0.01953125,9.80859375
28,438000000,imu2_frame,-0.01220703125,-0.00347900390625,-0.810302734375,0.99139404296875,0.05078125,-0.001953125,-0.00390625,-0.015625,0.01953125,9.80859375
28,463000000,imu2_frame,-0.01220703125,-0.00347900390625,-0.810302734375,0.99139404296875,0.0078125,0.0234375,0.01953125,-0.015625,0.01953125,9.80859375
28,488000000,imu2_frame,-0.01220703125,-0.00347900390625,-0.810302734375,0.99139404296875,0.0078125,0.0234375,0.01953125,0.0234375,-0.1328125,9.8046875
28,513000000,imu2_frame,-0.01220703125,-0.00347900390625,-0.810302734375,0.99139404296875,-0.03125,-0.01953125,0.017578125,0.0234375,-0.1328125,9.8046875
28,538000000,imu2_frame,-0.01220703125,-0.00347900390625,-0.810302734375,0.99139404296875,0.07421875,0.013671875,0.021484375,0.0234375,-0.1328125,9.8046875
28,563000000,imu2_frame,-0.01220703125,-0.00347900390625,-0.810302734375,0.99139404296875,-0.025390625,-0.00390625,0.0,0.0234375,-0.1328125,9.8046875
28,588000000,imu2_frame,-0.01220703125,-0.00347900390625,-0.810302734375,0.99139404296875,-0.025390625,-0.00390625,0.0,0.0234375,-0.2109375,9.8046875
28,613000000,imu2_frame,-0.01220703125,-0.00347900390625,-0.810302734375,0.99139404296875,-0.001953125,-0.00390625,-0.0390625,0.0234375,-0.2109375,9.8046875
28,638000000,imu2_frame,-0.01220703125,-0.00347900390625,-0.810302734375,0.99139404296875,-0.001953125,-0.00390625,-0.0390625,-0.015625,-0.28515625,9.80859375
28,663000000,imu2_frame,-0.01220703125,-0.00347900390625,-0.810302734375,0.99139404296875,-0.009765625,-0.00390625,-0.009765625,-0.015625,-0.28515625,9.80859375
28,688000000,imu2_frame,-0.01220703125,-0.00347900390625,-0.810302734375,0.99139404296875,-0.009765625,-0.00390625,-0.009765625,0.1015625,-0.40234375,9.80859375
28,713000000,imu2_frame,-0.01220703125,-0.00347900390625,-0.810302734375,0.99139404296875,-0.009765625,-0.00390625,-0.009765625,-0.0546875,-0.24609375,9.80859375
28,738000000,imu2_frame,-0.01220703125,-0.00347900390625,-0.810302734375,0.99139404296875,0.044921875,0.01953125,-0.068359375,-0.0546875,-0.24609375,9.80859375
28,763000000,imu2_frame,-0.01220703125,-0.00347900390625,-0.810302734375,0.99139404296875,-0.037109375,-0.00390625,0.00390625,-0.0546875,-0.24609375,9.80859375
28,788000000,imu2_frame,-0.01220703125,-0.00347900390625,-0.810302734375,0.99139404296875,-0.037109375,-0.00390625,0.00390625,0.0234375,-0.28515625,9.8046875
28,813000000,imu2_frame,-0.01220703125,-0.00347900390625,-0.810302734375,0.99139404296875,-0.037109375,-0.00390625,0.00390625,-0.015625,0.01953125,9.80859375
28,838000000,imu2_frame,-0.01220703125,-0.00347900390625,-0.810302734375,0.99139404296875,0.0,0.0,0.0078125,-0.015625,0.01953125,9.80859375
28,863000000,imu2_frame,-0.01220703125,-0.00347900390625,-0.810302734375,0.99139404296875,0.015625,0.0,0.017578125,-0.015625,0.01953125,9.80859375
28,888000000,imu2_frame,-0.01220703125,-0.00347900390625,-0.810302734375,0.99139404296875,0.015625,0.0,0.017578125,0.0234375,-0.171875,9.84375
28,913000000,imu2_frame,-0.01220703125,-0.00347900390625,-0.810302734375,0.99139404296875,0.0,0.0,0.0,0.0234375,-0.171875,9.84375
28,938000000,imu2_frame,-0.01220703125,-0.00347900390625,-0.810302734375,0.99139404296875,-0.001953125,0.0,0.001953125,0.0234375,-0.171875,9.84375
28,963000000,imu2_frame,-0.01220703125,-0.00347900390625,-0.810302734375,0.99139404296875,-0.001953125,-0.001953125,0.005859375,0.0234375,-0.171875,9.84375
28,988000000,imu2_frame,-0.01220703125,-0.00347900390625,-0.810302734375,0.99139404296875,-0.001953125,-0.001953125,0.005859375,0.0234375,-0.2109375,9.8046875
29,13000000,imu2_frame,-0.01220703125,-0.00347900390625,-0.810302734375,0.99139404296875,0.001953125,0.001953125,-0.001953125,0.0234375,-0.2109375,9.8046875
29,38000000,imu2_frame,-0.01220703125,-0.00347900390625,-0.810302734375,0.99139404296875,0.001953125,0.001953125,-0.001953125,-0.015625,-0.2109375,9.80859375
29,63000000,imu2_frame,-0.01220703125,-0.00347900390625,-0.810302734375,0.99139404296875,0.0,0.0,0.0,-0.015625,-0.2109375,9.80859375
29,88000000,imu2_frame,-0.01220703125,-0.00347900390625,-0.810302734375,0.99139404296875,0.0,0.0,0.0,0.0234375,-0.24609375,9.8046875
29,113000000,imu2_frame,-0.01220703125,-0.00347900390625,-0.810302734375,0.99139404296875,0.0,0.0,0.0,-0.015625,-0.171875,9.8046875
29,138000000,imu2_frame,-0.01220703125,-0.00347900390625,-0.810302734375,0.99139404296875,0.001953125,0.0,0.015625,-0.015625,-0.171875,9.8046875
29,163000000,imu2_frame,-0.01220703125,-0.00347900390625,-0.810302734375,0.99139404296875,0.0,0.0,0.01171875,-0.015625,-0.171875,9.8046875
29,188000000,imu2_frame,-0.01220703125,-0.00347900390625,-0.810302734375,0.99139404296875,0.0,0.0,0.01171875,-0.015625,-0.2109375,9.80859375
29,213000000,imu2_frame,-0.01220703125,-0.00347900390625,-0.810302734375,0.99139404296875,0.0,0.0,0.01171875,-0.015625,-0.171875,9.765625
29,238000000,imu2_frame,-0.01220703125,-0.00347900390625,-0.810302734375,0.99139404296875,0.001953125,0.0,0.0078125,-0.015625,-0.171875,9.765625
29,263000000,imu2_frame,-0.01220703125,-0.00347900390625,-0.810302734375,0.99139404296875,0.0,0.001953125,0.001953125,-0.015625,-0.171875,9.765625
29,288000000,imu2_frame,-0.01220703125,-0.00347900390625,-0.810302734375,0.99139404296875,0.0,0.001953125,0.001953125,-0.015625,-0.171875,9.8046875
29,313000000,imu2_frame,-0.01220703125,-0.00347900390625,-0.810302734375,0.99139404296875,-0.001953125,0.0,-0.001953125,-0.015625,-0.171875,9.8046875
29,338000000,imu2_frame,-0.01220703125,-0.00347900390625,-0.810302734375,0.99139404296875,0.001953125,0.001953125,-0.001953125,-0.015625,-0.171875,9.8046875
29,363000000,imu2_frame,-0.01220703125,-0.00347900390625,-0.810302734375,0.99139404296875,-0.001953125,0.0,-0.001953125,-0.015625,-0.171875,9.8046875
29,388000000,imu2_frame,-0.01220703125,-0.00347900390625,-0.810302734375,0.99139404296875,-0.001953125,0.0,-0.001953125,0.0234375,-0.171875,9.80859375
29,413000000,imu2_frame,-0.01220703125,-0.00347900390625,-0.810302734375,0.99139404296875,-0.001953125,0.0,-0.001953125,0.0625,-0.2109375,9.80859375
29,438000000,imu2_frame,-0.01220703125,-0.00347900390625,-0.810302734375,0.99139404296875,-0.001953125,0.0,-0.001953125,0.0234375,-0.2109375,9.84765625
29,463000000,imu2_frame,-0.01220703125,-0.00347900390625,-0.810302734375,0.99139404296875,-0.001953125,0.001953125,0.0,0.0234375,-0.2109375,9.84765625
29,488000000,imu2_frame,-0.01220703125,-0.00347900390625,-0.810302734375,0.99139404296875,-0.001953125,0.001953125,0.0,0.0234375,-0.2109375,9.8046875
29,513000000,imu2_frame,-0.01220703125,-0.00347900390625,-0.810302734375,0.99139404296875,-0.001953125,0.001953125,0.0,0.0625,-0.2109375,9.80859375
29,538000000,imu2_frame,-0.01220703125,-0.00347900390625,-0.810302734375,0.99139404296875,-0.001953125,0.001953125,0.0,0.0234375,-0.2109375,9.8046875
29,563000000,imu2_frame,-0.01220703125,-0.00347900390625,-0.810302734375,0.99139404296875,-0.001953125,0.0,0.0,0.0234375,-0.2109375,9.8046875
29,588000000,imu2_frame,-0.01220703125,-0.00347900390625,-0.810302734375,0.99139404296875,-0.001953125,0.0,0.0,0.0625,-0.2109375,9.80859375
29,613000000,imu2_frame,-0.01220703125,-0.00347900390625,-0.810302734375,0.99139404296875,-0.001953125,0.0,0.0,0.0234375,-0.2109375,9.8046875
29,638000000,imu2_frame,-0.01220703125,-0.00347900390625,-0.810302734375,0.99139404296875,0.00390625,0.0,-0.009765625,0.0234375,-0.2109375,9.8046875
29,663000000,imu2_frame,-0.01220703125,-0.00347900390625,-0.810302734375,0.99139404296875,0.001953125,0.0,-0.01171875,0.0234375,-0.2109375,9.8046875
29,688000000,imu2_frame,-0.01220703125,-0.00347900390625,-0.810302734375,0.99139404296875,0.001953125,0.0,-0.01171875,0.0234375,-0.2109375,9.8046875
29,713000000,imu2_frame,-0.01220703125,-0.00347900390625,-0.810302734375,0.99139404296875,0.001953125,0.001953125,0.0,0.0234375,-0.2109375,9.8046875
29,738000000,imu2_frame,-0.01220703125,-0.00347900390625,-0.810302734375,0.99139404296875,0.001953125,0.001953125,0.0,0.0234375,-0.2109375,9.8046875
29,763000000,imu2_frame,-0.01220703125,-0.00347900390625,-0.810302734375,0.99139404296875,0.0,0.0,-0.013671875,0.0234375,-0.2109375,9.8046875
29,788000000,imu2_frame,-0.01220703125,-0.00347900390625,-0.810302734375,0.99139404296875,0.0,0.0,-0.013671875,0.0234375,-0.171875,9.80859375
29,813000000,imu2_frame,-0.01220703125,-0.00347900390625,-0.810302734375,0.99139404296875,0.001953125,0.0,0.0,0.0234375,-0.171875,9.80859375
29,838000000,imu2_frame,-0.01220703125,-0.00347900390625,-0.810302734375,0.99139404296875,0.001953125,0.0,0.0,0.0625,-0.24609375,9.80859375
29,863000000,imu2_frame,-0.01220703125,-0.00347900390625,-0.810302734375,0.99139404296875,0.001953125,0.001953125,0.0,0.0625,-0.24609375,9.80859375
29,890000000,imu2_frame,-0.01220703125,-0.00347900390625,-0.810302734375,0.99139404296875,0.001953125,0.001953125,0.0,0.0234375,-0.2109375,9.8046875
29,913000000,imu2_frame,-0.01220703125,-0.00347900390625,-0.810302734375,0.99139404296875,0.001953125,0.001953125,0.0,0.0625,-0.2109375,9.80859375
29,938000000,imu2_frame,-0.01220703125,-0.00347900390625,-0.810302734375,0.99139404296875,0.001953125,0.001953125,-0.001953125,0.0625,-0.2109375,9.80859375
29,963000000,imu2_frame,-0.01220703125,-0.00347900390625,-0.810302734375,0.99139404296875,0.0,0.00390625,0.0,0.0625,-0.2109375,9.80859375
29,988000000,imu2_frame,-0.01220703125,-0.00347900390625,-0.810302734375,0.99139404296875,0.0,0.00390625,0.0,0.0234375,-0.171875,9.80859375
30,13000000,imu2_frame,-0.01220703125,-0.00347900390625,-0.810302734375,0.99139404296875,0.0,0.00390625,0.0,0.0625,-0.2109375,9.84375
30,38000000,imu2_frame,-0.01220703125,-0.00347900390625,-0.810302734375,0.99139404296875,0.0,0.001953125,0.0,0.0625,-0.2109375,9.84375
30,63000000,imu2_frame,-0.01220703125,-0.00347900390625,-0.810302734375,0.99139404296875,0.0,0.001953125,0.0,0.0234375,-0.171875,9.80859375
30,88000000,imu2_frame,-0.01220703125,-0.00347900390625,-0.810302734375,0.99139404296875,0.0,0.001953125,0.0,0.0234375,-0.2109375,9.8046875
30,113000000,imu2_frame,-0.01220703125,-0.00347900390625,-0.810302734375,0.99139404296875,0.00390625,-0.001953125,0.0,0.0234375,-0.2109375,9.8046875
30,138000000,imu2_frame,-0.01220703125,-0.00347900390625,-0.810302734375,0.99139404296875,0.00390625,-0.001953125,0.0,0.0234375,-0.2109375,9.8046875
30,163000000,imu2_frame,-0.01220703125,-0.00347900390625,-0.810302734375,0.99139404296875,0.0,0.0,0.009765625,0.0234375,-0.2109375,9.8046875
30,188000000,imu2_frame,-0.01220703125,-0.00347900390625,-0.810302734375,0.99139404296875,0.0,0.0,0.009765625,0.0234375,-0.2109375,9.8046875
30,213000000,imu2_frame,-0.01220703125,-0.00347900390625,-0.810302734375,0.99139404296875,0.0,0.0,0.009765625,0.0234375,-0.2109375,9.8046875
30,238000000,imu2_frame,-0.01220703125,-0.00347900390625,-0.810302734375,0.99139404296875,0.0,0.0,0.009765625,0.0234375,-0.171875,9.80859375
30,263000000,imu2_frame,-0.01220703125,-0.00347900390625,-0.810302734375,0.99139404296875,0.0,-0.001953125,0.0,0.0234375,-0.171875,9.80859375
30,288000000,imu2_frame,-0.01220703125,-0.00347900390625,-0.810302734375,0.99139404296875,0.0,-0.001953125,0.0,0.0234375,-0.2109375,9.8046875
30,313000000,imu2_frame,-0.01220703125,-0.00347900390625,-0.810302734375,0.99139404296875,0.0,-0.001953125,0.0,0.0234375,-0.2109375,9.8046875
30,338000000,imu2_frame,-0.01220703125,-0.00347900390625,-0.810302734375,0.99139404296875,0.0,-0.001953125,0.0,0.0234375,-0.171875,9.80859375
30,363000000,imu2_frame,-0.01220703125,-0.00347900390625,-0.810302734375,0.99139404296875,0.00390625,0.0,0.0,0.0234375,-0.171875,9.80859375
30,388000000,imu2_frame,-0.01220703125,-0.00347900390625,-0.810302734375,0.99139404296875,0.00390625,0.0,0.0,0.0625,-0.24609375,9.80859375
30,413000000,imu2_frame,-0.01220703125,-0.00347900390625,-0.810302734375,0.99139404296875,0.00390625,0.0,0.0,0.0234375,-0.2109375,9.8046875
30,438000000,imu2_frame,-0.01220703125,-0.00347900390625,-0.810302734375,0.99139404296875,0.00390625,0.001953125,0.00390625,0.0234375,-0.2109375,9.8046875
30,463000000,imu2_frame,-0.01220703125,-0.00347900390625,-0.810302734375,0.99139404296875,0.00390625,0.001953125,0.00390625,0.0234375,-0.171875,9.80859375
30,488000000,imu2_frame,-0.01220703125,-0.00347900390625,-0.810302734375,0.99139404296875,0.00390625,0.001953125,0.00390625,0.0625,-0.2109375,9.80859375
30,513000000,imu2_frame,-0.01220703125,-0.00347900390625,-0.810302734375,0.99139404296875,-0.001953125,0.0,-0.001953125,0.0625,-0.2109375,9.80859375
30,538000000,imu2_frame,-0.01220703125,-0.00347900390625,-0.810302734375,0.99139404296875,-0.001953125,0.0,-0.001953125,0.0234375,-0.171875,9.80859375
30,563000000,imu2_frame,-0.01220703125,-0.00347900390625,-0.810302734375,0.99139404296875,0.00390625,0.0,0.005859375,0.0234375,-0.171875,9.80859375
30,588000000,imu2_frame,-0.01220703125,-0.00347900390625,-0.810302734375,0.99139404296875,0.00390625,0.0,0.005859375,0.0234375,-0.2109375,9.8046875
30,613000000,imu2_frame,-0.01220703125,-0.00347900390625,-0.810302734375,0.99139404296875,0.00390625,0.0,0.005859375,0.0234375,-0.2109375,9.84765625
30,638000000,imu2_frame,-0.01220703125,-0.00347900390625,-0.810302734375,0.99139404296875,0.00390625,0.0,0.005859375,0.0234375,-0.2109375,9.8046875
30,663000000,imu2_frame,-0.01220703125,-0.00347900390625,-0.810302734375,0.99139404296875,0.001953125,-0.001953125,0.0078125,0.0234375,-0.2109375,9.8046875
30,688000000,imu2_frame,-0.01220703125,-0.00347900390625,-0.810302734375,0.99139404296875,0.001953125,-0.001953125,0.0078125,0.0234375,-0.2109375,9.8046875
30,713000000,imu2_frame,-0.01220703125,-0.00347900390625,-0.810302734375,0.99139404296875,0.001953125,-0.001953125,0.0078125,0.0234375,-0.2109375,9.8046875
30,738000000,imu2_frame,-0.01220703125,-0.00347900390625,-0.810302734375,0.99139404296875,0.001953125,-0.001953125,0.0078125,0.0234375,-0.171875,9.80859375
30,763000000,imu2_frame,-0.01220703125,-0.00347900390625,-0.810302734375,0.99139404296875,0.001953125,0.001953125,0.0,0.0234375,-0.171875,9.80859375
30,788000000,imu2_frame,-0.01220703125,-0.00347900390625,-0.810302734375,0.99139404296875,0.001953125,0.001953125,0.0,0.0234375,-0.2109375,9.8046875
30,813000000,imu2_frame,-0.01220703125,-0.00347900390625,-0.810302734375,0.99139404296875,0.001953125,0.001953125,0.0,0.0625,-0.171875,9.8046875
30,838000000,imu2_frame,-0.01220703125,-0.00347900390625,-0.810302734375,0.99139404296875,0.001953125,0.0,-0.001953125,0.0625,-0.171875,9.8046875
30,863000000,imu2_frame,-0.01220703125,-0.00347900390625,-0.810302734375,0.99139404296875,0.001953125,0.0,-0.001953125,0.0234375,-0.2109375,9.8046875
30,888000000,imu2_frame,-0.010009765625,0.0009765625,-0.24871826171875,0.968505859375,0.001953125,0.0,-0.001953125,0.0234375,-0.2109375,9.8046875
30,913000000,imu2_frame,-0.010009765625,0.0009765625,-0.24871826171875,0.968505859375,-0.001953125,0.0,-0.01171875,0.0234375,-0.2109375,9.8046875
30,938000000,imu2_frame,-0.010009765625,0.0009765625,-0.24871826171875,0.968505859375,-0.001953125,0.0,-0.01171875,0.0234375,-0.2109375,9.8046875
30,963000000,imu2_frame,-0.010009765625,0.0009765625,-0.24871826171875,0.968505859375,-0.005859375,0.0,-0.00390625,0.0234375,-0.2109375,9.8046875
30,988000000,imu2_frame,-0.010009765625,0.0009765625,-0.24871826171875,0.968505859375,-0.005859375,0.0,-0.00390625,0.0234375,-0.171875,9.80859375
31,13000000,imu2_frame,-0.010009765625,0.0009765625,-0.24871826171875,0.968505859375,-0.005859375,0.0,-0.00390625,-0.015625,-0.2109375,9.84375
31,38000000,imu2_frame,-0.010009765625,0.0009765625,-0.24871826171875,0.968505859375,-0.005859375,0.0,-0.00390625,0.0234375,-0.2109375,9.8046875
31,63000000,imu2_frame,-0.010009765625,0.0009765625,-0.24871826171875,0.968505859375,0.001953125,0.001953125,-0.001953125,0.0234375,-0.2109375,9.8046875
31,88000000,imu2_frame,-0.01019287109375,0.0010986328125,-0.24920654296875,0.9683837890625,0.001953125,0.001953125,-0.001953125,0.0234375,-0.2109375,9.8046875
31,113000000,imu2_frame,-0.01019287109375,0.0010986328125,-0.24920654296875,0.9683837890625,0.001953125,0.001953125,-0.001953125,0.0234375,-0.2109375,9.8046875
31,138000000,imu2_frame,-0.01019287109375,0.0010986328125,-0.24920654296875,0.9683837890625,0.001953125,0.001953125,0.0,0.0234375,-0.2109375,9.8046875
31,163000000,imu2_frame,-0.01019287109375,0.0010986328125,-0.24920654296875,0.9683837890625,0.001953125,0.0,0.0,0.0234375,-0.2109375,9.8046875
31,188000000,imu2_frame,-0.01019287109375,0.0010986328125,-0.24920654296875,0.9683837890625,0.001953125,0.0,0.0,0.0234375,-0.171875,9.80859375
31,213000000,imu2_frame,-0.01019287109375,0.0010986328125,-0.24920654296875,0.9683837890625,0.001953125,0.0,0.0,0.0234375,-0.2109375,9.8046875
31,238000000,imu2_frame,-0.01019287109375,0.0010986328125,-0.24920654296875,0.9683837890625,0.0,0.0,-0.001953125,0.0234375,-0.2109375,9.8046875
31,263000000,imu2_frame,-0.01019287109375,0.0010986328125,-0.24920654296875,0.9683837890625,0.0,0.0,-0.001953125,0.0234375,-0.2109375,9.8046875
31,288000000,imu2_frame,-0.01019287109375,0.0010986328125,-0.24920654296875,0.9683837890625,0.0,0.0,-0.001953125,0.0234375,-0.2109375,9.8046875
31,313000000,imu2_frame,-0.01019287109375,0.0010986328125,-0.24920654296875,0.9683837890625,0.005859375,0.00390625,0.0,0.0234375,-0.2109375,9.8046875
31,338000000,imu2_frame,-0.01019287109375,0.0010986328125,-0.24920654296875,0.9683837890625,0.005859375,0.00390625,0.0,0.0234375,-0.2109375,9.84765625
31,363000000,imu2_frame,-0.01019287109375,0.0010986328125,-0.24920654296875,0.9683837890625,0.005859375,0.0,0.001953125,0.0234375,-0.2109375,9.84765625
31,388000000,imu2_frame,-0.01019287109375,0.0010986328125,-0.24920654296875,0.9683837890625,0.005859375,0.0,0.001953125,0.0234375,-0.2109375,9.84765625
31,413000000,imu2_frame,-0.01019287109375,0.0010986328125,-0.24920654296875,0.9683837890625,0.005859375,0.0,0.001953125,-0.015625,-0.2109375,9.80859375
31,438000000,imu2_frame,-0.01019287109375,0.0010986328125,-0.24920654296875,0.9683837890625,0.005859375,0.0,0.001953125,-0.015625,-0.2109375,9.84375
31,463000000,imu2_frame,-0.01019287109375,0.0010986328125,-0.24920654296875,0.9683837890625,0.00390625,0.0,0.0,-0.015625,-0.2109375,9.84375
31,488000000,imu2_frame,-0.00994873046875,0.00115966796875,-0.24920654296875,0.9683837890625,0.00390625,0.0,0.0,-0.015625,-0.2109375,9.84375
31,513000000,imu2_frame,-0.00994873046875,0.00115966796875,-0.24920654296875,0.9683837890625,0.00390625,0.0,0.0,-0.015625,-0.2109375,9.80859375
31,538000000,imu2_frame,-0.00994873046875,0.00115966796875,-0.24920654296875,0.9683837890625,0.0,0.0,-0.001953125,-0.015625,-0.2109375,9.80859375
31,563000000,imu2_frame,-0.00994873046875,0.00115966796875,-0.24920654296875,0.9683837890625,0.0,0.001953125,-0.001953125,-0.015625,-0.2109375,9.80859375
31,588000000,imu2_frame,-0.00994873046875,0.00115966796875,-0.24920654296875,0.9683837890625,0.0,0.001953125,-0.001953125,-0.015625,-0.2109375,9.80859375
31,613000000,imu2_frame,-0.00994873046875,0.00115966796875,-0.24920654296875,0.9683837890625,0.0,0.001953125,-0.001953125,-0.015625,-0.2109375,9.84375
31,638000000,imu2_frame,-0.00994873046875,0.00115966796875,-0.24920654296875,0.9683837890625,0.001953125,0.001953125,-0.005859375,-0.015625,-0.2109375,9.84375
31,663000000,imu2_frame,-0.00994873046875,0.00115966796875,-0.24920654296875,0.9683837890625,0.001953125,0.001953125,-0.005859375,-0.015625,-0.2109375,9.80859375
31,688000000,imu2_frame,-0.0098876953125,0.0013427734375,-0.24945068359375,0.96832275390625,0.001953125,0.001953125,-0.005859375,-0.015625,-0.2109375,9.80859375
31,713000000,imu2_frame,-0.0098876953125,0.0013427734375,-0.24945068359375,0.96832275390625,0.0,-0.001953125,-0.00390625,-0.015625,-0.2109375,9.80859375
31,738000000,imu2_frame,-0.0098876953125,0.0013427734375,-0.24945068359375,0.96832275390625,0.0,-0.001953125,-0.00390625,-0.015625,-0.171875,9.8046875
31,763000000,imu2_frame,-0.0098876953125,0.0013427734375,-0.24945068359375,0.96832275390625,0.0,0.001953125,-0.001953125,-0.015625,-0.171875,9.8046875
31,788000000,imu2_frame,-0.0098876953125,0.0013427734375,-0.24945068359375,0.96832275390625,0.001953125,0.001953125,0.0,-0.015625,-0.171875,9.8046875
31,813000000,imu2_frame,-0.0098876953125,0.0013427734375,-0.24945068359375,0.96832275390625,0.001953125,0.001953125,0.0,0.0234375,-0.171875,9.84375
31,838000000,imu2_frame,-0.0098876953125,0.0013427734375,-0.24945068359375,0.96832275390625,0.001953125,0.001953125,0.0,0.0234375,-0.171875,9.80859375
31,863000000,imu2_frame,-0.0098876953125,0.0013427734375,-0.24945068359375,0.96832275390625,0.0,0.001953125,-0.001953125,0.0234375,-0.171875,9.80859375
31,891000000,imu2_frame,-0.0098876953125,0.0013427734375,-0.24945068359375,0.96832275390625,0.0,0.001953125,-0.005859375,0.0234375,-0.171875,9.80859375
31,913000000,imu2_frame,-0.0098876953125,0.0013427734375,-0.24945068359375,0.96832275390625,0.0,0.001953125,-0.005859375,-0.015625,-0.2109375,9.80859375
31,938000000,imu2_frame,-0.0098876953125,0.0013427734375,-0.24945068359375,0.96832275390625,0.001953125,0.0,0.0,-0.015625,-0.2109375,9.80859375
31,963000000,imu2_frame,-0.0098876953125,0.0013427734375,-0.24945068359375,0.96832275390625,0.001953125,0.0,0.0,-0.015625,-0.2109375,9.80859375
31,988000000,imu2_frame,-0.00982666015625,0.001708984375,-0.24981689453125,0.96826171875,0.001953125,0.0,0.0,-0.015625,-0.2109375,9.80859375
32,13000000,imu2_frame,-0.00982666015625,0.001708984375,-0.24981689453125,0.96826171875,0.001953125,0.0,0.0,0.0234375,-0.171875,9.80859375
32,38000000,imu2_frame,-0.00982666015625,0.001708984375,-0.24981689453125,0.96826171875,0.001953125,0.001953125,0.0,0.0234375,-0.171875,9.80859375
32,63000000,imu2_frame,-0.00982666015625,0.001708984375,-0.24981689453125,0.96826171875,0.001953125,0.001953125,0.0,-0.015625,-0.2109375,9.80859375
32,88000000,imu2_frame,-0.00982666015625,0.0018310546875,-0.24981689453125,0.96826171875,0.001953125,0.001953125,0.0,-0.015625,-0.2109375,9.80859375
32,113000000,imu2_frame,-0.00982666015625,0.0018310546875,-0.24981689453125,0.96826171875,0.001953125,0.0,0.0,-0.015625,-0.2109375,9.80859375
32,138000000,imu2_frame,-0.00982666015625,0.0018310546875,-0.24981689453125,0.96826171875,0.001953125,0.0,0.0,-0.015625,-0.2109375,9.80859375
32,163000000,imu2_frame,-0.00982666015625,0.0018310546875,-0.24981689453125,0.96826171875,0.005859375,0.001953125,0.0234375,-0.015625,-0.2109375,9.80859375
32,188000000,imu2_frame,-0.00982666015625,0.0018310546875,-0.24981689453125,0.96826171875,0.005859375,0.001953125,0.0234375,0.0234375,-0.2109375,9.8046875
32,213000000,imu2_frame,-0.00982666015625,0.0018310546875,-0.24981689453125,0.96826171875,0.005859375,0.001953125,0.0234375,-0.015625,-0.2109375,9.80859375
32,238000000,imu2_frame,-0.00982666015625,0.0018310546875,-0.24981689453125,0.96826171875,0.005859375,0.001953125,0.0234375,-0.015625,-0.24609375,9.80859375
32,263000000,imu2_frame,-0.00982666015625,0.0018310546875,-0.24981689453125,0.96826171875,0.0,-0.00390625,0.013671875,-0.015625,-0.24609375,9.80859375
32,288000000,imu2_frame,-0.009765625,0.001953125,-0.24920654296875,0.9683837890625,0.0,-0.00390625,0.013671875,-0.015625,-0.24609375,9.80859375
32,313000000,imu2_frame,-0.009765625,0.001953125,-0.24920654296875,0.9683837890625,0.0,-0.00390625,0.013671875,0.0234375,-0.171875,9.80859375
32,338000000,imu2_frame,-0.009765625,0.001953125,-0.24920654296875,0.9683837890625,0.001953125,0.0,0.013671875,0.0234375,-0.171875,9.80859375
32,363000000,imu2_frame,-0.009765625,0.001953125,-0.24920654296875,0.9683837890625,0.0,-0.001953125,0.01171875,0.0234375,-0.171875,9.80859375
32,388000000,imu2_frame,-0.009765625,0.001953125,-0.24920654296875,0.9683837890625,0.005859375,0.001953125,0.005859375,0.0234375,-0.171875,9.80859375
32,413000000,imu2_frame,-0.009765625,0.001953125,-0.24920654296875,0.9683837890625,0.005859375,0.001953125,0.005859375,-0.015625,-0.171875,9.8046875
32,438000000,imu2_frame,-0.009765625,0.001953125,-0.24920654296875,0.9683837890625,0.0,0.001953125,0.0,-0.015625,-0.171875,9.8046875
32,463000000,imu2_frame,-0.009765625,0.001953125,-0.24920654296875,0.9683837890625,0.0,0.001953125,0.0,-0.015625,-0.2109375,9.80859375
32,488000000,imu2_frame,-0.00958251953125,0.001953125,-0.24859619140625,0.96856689453125,0.0,0.001953125,0.0,-0.015625,-0.2109375,9.80859375
32,513000000,imu2_frame,-0.00958251953125,0.001953125,-0.24859619140625,0.96856689453125,0.0,0.0,-0.001953125,-0.015625,-0.2109375,9.80859375
32,538000000,imu2_frame,-0.00958251953125,0.001953125,-0.24859619140625,0.96856689453125,0.0,0.0,-0.001953125,0.0234375,-0.2109375,9.8046875
32,563000000,imu2_frame,-0.00958251953125,0.001953125,-0.24859619140625,0.96856689453125,0.0078125,0.001953125,0.033203125,0.0234375,-0.2109375,9.8046875
32,588000000,imu2_frame,-0.00958251953125,0.001953125,-0.24859619140625,0.96856689453125,0.0546875,0.015625,0.125,0.0234375,-0.2109375,9.8046875
32,613000000,imu2_frame,-0.00958251953125,0.001953125,-0.24859619140625,0.96856689453125,0.0546875,0.015625,0.125,-0.015625,-0.4375,9.84375
32,638000000,imu2_frame,-0.00958251953125,0.001953125,-0.24859619140625,0.96856689453125,0.0546875,0.015625,0.125,-0.16796875,-0.40234375,9.8046875
32,663000000,imu2_frame,-0.00958251953125,0.001953125,-0.24859619140625,0.96856689453125,-0.001953125,0.021484375,-0.20703125,-0.16796875,-0.40234375,9.8046875
32,688000000,imu2_frame,-0.00958251953125,0.001953125,-0.24859619140625,0.96856689453125,0.056640625,0.013671875,-0.23828125,-0.16796875,-0.40234375,9.8046875
32,713000000,imu2_frame,-0.00958251953125,0.001953125,-0.24859619140625,0.96856689453125,0.056640625,0.013671875,-0.23828125,-0.16796875,-0.1328125,9.84765625
32,738000000,imu2_frame,-0.00958251953125,0.001953125,-0.24859619140625,0.96856689453125,-0.03515625,0.00390625,-0.109375,-0.16796875,-0.1328125,9.84765625
32,763000000,imu2_frame,-0.00958251953125,0.001953125,-0.24859619140625,0.96856689453125,0.013671875,0.015625,-0.140625,-0.16796875,-0.1328125,9.84765625
32,788000000,imu2_frame,-0.00958251953125,0.001953125,-0.24859619140625,0.96856689453125,-0.037109375,0.0,-0.033203125,-0.16796875,-0.1328125,9.84765625
32,813000000,imu2_frame,-0.00958251953125,0.001953125,-0.24859619140625,0.96856689453125,-0.037109375,0.0,-0.033203125,0.3671875,-0.40234375,9.8046875
32,838000000,imu2_frame,-0.00958251953125,0.001953125,-0.24859619140625,0.96856689453125,-0.013671875,0.0078125,-0.1953125,0.3671875,-0.40234375,9.8046875
32,863000000,imu2_frame,-0.00958251953125,0.001953125,-0.24859619140625,0.96856689453125,-0.013671875,0.0078125,-0.1953125,0.0234375,-0.01953125,9.765625
32,888000000,imu2_frame,-0.00958251953125,0.001953125,-0.24859619140625,0.96856689453125,0.025390625,0.005859375,-0.125,0.0234375,-0.01953125,9.765625
32,913000000,imu2_frame,-0.00958251953125,0.001953125,-0.24859619140625,0.96856689453125,-0.044921875,-0.015625,-0.021484375,0.0234375,-0.01953125,9.765625
32,938000000,imu2_frame,-0.00958251953125,0.001953125,-0.24859619140625,0.96856689453125,-0.044921875,-0.015625,-0.021484375,-0.015625,0.13671875,9.8046875
32,963000000,imu2_frame,-0.00958251953125,0.001953125,-0.24859619140625,0.96856689453125,0.0,-0.0078125,-0.193359375,-0.015625,0.13671875,9.8046875
32,988000000,imu2_frame,-0.00958251953125,0.001953125,-0.24859619140625,0.96856689453125,0.00390625,0.01953125,-0.23828125,-0.015625,0.13671875,9.8046875
33,13000000,imu2_frame,-0.00958251953125,0.001953125,-0.24859619140625,0.96856689453125,0.00390625,0.01953125,-0.23828125,-0.015625,0.05859375,9.76953125
33,38000000,imu2_frame,-0.00958251953125,0.001953125,-0.24859619140625,0.96856689453125,0.00390625,0.01953125,-0.23828125,0.0625,-0.70703125,9.80859375
33,63000000,imu2_frame,-0.00958251953125,0.001953125,-0.24859619140625,0.96856689453125,-0.017578125,0.001953125,-0.3203125,0.0625,-0.70703125,9.80859375
33,88000000,imu2_frame,-0.00958251953125,0.001953125,-0.24859619140625,0.96856689453125,0.001953125,0.0078125,-0.16015625,0.0625,-0.70703125,9.80859375
33,113000000,imu2_frame,-0.00958251953125,0.001953125,-0.24859619140625,0.96856689453125,0.001953125,0.0078125,-0.16015625,0.0234375,-0.09375,9.8046875
33,138000000,imu2_frame,-0.00958251953125,0.001953125,-0.24859619140625,0.96856689453125,0.00390625,0.00390625,-0.09765625,0.0234375,-0.09375,9.8046875
33,163000000,imu2_frame,-0.00958251953125,0.001953125,-0.24859619140625,0.96856689453125,0.00390625,0.00390625,-0.09765625,-0.12890625,-0.171875,9.84375
33,188000000,imu2_frame,-0.00958251953125,0.001953125,-0.24859619140625,0.96856689453125,0.005859375,0.001953125,-0.08203125,-0.12890625,-0.171875,9.84375
33,213000000,imu2_frame,-0.00958251953125,0.001953125,-0.24859619140625,0.96856689453125,0.005859375,0.001953125,-0.08203125,-0.08984375,-0.0546875,9.80859375
33,238000000,imu2_frame,-0.00958251953125,0.001953125,-0.24859619140625,0.96856689453125,0.005859375,0.001953125,-0.08203125,0.1015625,-0.1328125,9.84375
33,263000000,imu2_frame,-0.00958251953125,0.001953125,-0.24859619140625,0.96856689453125,0.005859375,0.001953125,-0.08203125,0.0625,-0.40234375,9.80859375
33,288000000,imu2_frame,-0.0147705078125,0.00189208984375,-0.2958984375,0.95513916015625,0.005859375,0.001953125,-0.08203125,0.0625,-0.40234375,9.80859375
33,313000000,imu2_frame,-0.0147705078125,0.00189208984375,-0.2958984375,0.95513916015625,0.005859375,0.001953125,-0.08203125,-0.015625,-0.1328125,9.76953125
33,338000000,imu2_frame,-0.0147705078125,0.00189208984375,-0.2958984375,0.95513916015625,0.005859375,0.001953125,-0.08203125,-0.0546875,-0.171875,9.8046875
33,363000000,imu2_frame,-0.0147705078125,0.00189208984375,-0.2958984375,0.95513916015625,-0.056640625,0.03515625,-0.015625,-0.0546875,-0.171875,9.8046875
33,388000000,imu2_frame,-0.0147705078125,0.00189208984375,-0.2958984375,0.95513916015625,0.03515625,-0.03125,-0.025390625,-0.0546875,-0.171875,9.8046875
33,413000000,imu2_frame,-0.0147705078125,0.00189208984375,-0.2958984375,0.95513916015625,0.03515625,-0.03125,-0.025390625,-0.015625,-0.1328125,9.80859375
33,438000000,imu2_frame,-0.0147705078125,0.00189208984375,-0.2958984375,0.95513916015625,0.03515625,-0.03125,-0.025390625,-0.015625,-0.09375,9.80859375
33,463000000,imu2_frame,-0.0147705078125,0.00189208984375,-0.2958984375,0.95513916015625,-0.009765625,0.00390625,-0.1171875,-0.015625,-0.09375,9.80859375
33,488000000,imu2_frame,-0.0147705078125,0.00189208984375,-0.2958984375,0.95513916015625,-0.013671875,0.013671875,0.0,-0.015625,-0.09375,9.80859375
33,513000000,imu2_frame,-0.0147705078125,0.00189208984375,-0.2958984375,0.95513916015625,-0.013671875,0.013671875,0.0,0.0625,-0.2109375,9.80859375
33,538000000,imu2_frame,-0.0147705078125,0.00189208984375,-0.2958984375,0.95513916015625,-0.01171875,-0.02734375,0.01953125,0.0625,-0.2109375,9.80859375
33,563000000,imu2_frame,-0.0147705078125,0.00189208984375,-0.2958984375,0.95513916015625,-0.01171875,-0.02734375,0.01953125,0.1015625,-0.4375,9.80859375
33,588000000,imu2_frame,-0.0147705078125,0.00189208984375,-0.2958984375,0.95513916015625,-0.0078125,0.025390625,-0.021484375,0.1015625,-0.4375,9.80859375
33,613000000,imu2_frame,-0.0147705078125,0.00189208984375,-0.2958984375,0.95513916015625,-0.0078125,0.025390625,-0.021484375,0.13671875,-0.40234375,9.80859375
33,638000000,imu2_frame,-0.0147705078125,0.00189208984375,-0.2958984375,0.95513916015625,-0.0078125,0.025390625,-0.021484375,0.21484375,-0.40234375,9.80859375
33,663000000,imu2_frame,-0.0147705078125,0.00189208984375,-0.2958984375,0.95513916015625,-0.0078125,0.025390625,-0.021484375,-0.08984375,-0.1328125,9.84765625
33,688000000,imu2_frame,-0.0147705078125,0.00189208984375,-0.2958984375,0.95513916015625,0.025390625,0.015625,-0.095703125,-0.08984375,-0.1328125,9.84765625
33,713000000,imu2_frame,-0.0147705078125,0.00189208984375,-0.2958984375,0.95513916015625,0.025390625,0.015625,-0.095703125,0.17578125,-0.171875,9.80859375
33,738000000,imu2_frame,-0.0147705078125,0.00189208984375,-0.2958984375,0.95513916015625,0.025390625,0.015625,-0.095703125,0.0234375,-0.515625,9.80859375
33,763000000,imu2_frame,-0.0147705078125,0.00189208984375,-0.2958984375,0.95513916015625,0.015625,-0.0078125,-0.021484375,0.0234375,-0.515625,9.80859375
33,788000000,imu2_frame,-0.0147705078125,0.00189208984375,-0.2958984375,0.95513916015625,-0.017578125,0.013671875,-0.041015625,0.0234375,-0.515625,9.80859375
33,813000000,imu2_frame,-0.0147705078125,0.00189208984375,-0.2958984375,0.95513916015625,-0.017578125,0.013671875,-0.041015625,0.0234375,-0.1328125,9.8046875
33,838000000,imu2_frame,-0.0147705078125,0.00189208984375,-0.2958984375,0.95513916015625,-0.017578125,0.013671875,-0.041015625,0.1015625,-0.1328125,9.80859375
33,863000000,imu2_frame,-0.0147705078125,0.00189208984375,-0.2958984375,0.95513916015625,-0.00390625,-0.009765625,-0.033203125,0.1015625,-0.1328125,9.80859375
33,892000000,imu2_frame,-0.0147705078125,0.00189208984375,-0.2958984375,0.95513916015625,0.00390625,0.0234375,-0.16015625,0.1015625,-0.1328125,9.80859375
33,913000000,imu2_frame,-0.0147705078125,0.00189208984375,-0.2958984375,0.95513916015625,0.00390625,0.0234375,-0.16015625,0.1015625,-0.28515625,9.84375
33,938000000,imu2_frame,-0.0147705078125,0.00189208984375,-0.2958984375,0.95513916015625,-0.06640625,0.03515625,-0.203125,0.1015625,-0.28515625,9.84375
33,963000000,imu2_frame,-0.0147705078125,0.00189208984375,-0.2958984375,0.95513916015625,-0.06640625,0.03515625,-0.203125,0.1015625,-0.171875,9.8046875
33,988000000,imu2_frame,-0.0147705078125,0.00189208984375,-0.2958984375,0.95513916015625,-0.03515625,0.033203125,-0.130859375,0.1015625,-0.171875,9.8046875
34,13000000,imu2_frame,-0.0147705078125,0.00189208984375,-0.2958984375,0.95513916015625,-0.03515625,0.033203125,-0.130859375,0.1015625,-0.40234375,9.84375
34,38000000,imu2_frame,-0.0147705078125,0.00189208984375,-0.2958984375,0.95513916015625,-0.03515625,0.033203125,-0.130859375,0.0625,-0.171875,9.8046875
34,63000000,imu2_frame,-0.0147705078125,0.00189208984375,-0.2958984375,0.95513916015625,-0.03515625,0.033203125,-0.130859375,0.1015625,-0.24609375,9.80859375
34,88000000,imu2_frame,-0.0147705078125,0.00189208984375,-0.2958984375,0.95513916015625,-0.01171875,-0.01953125,0.0,0.1015625,-0.24609375,9.80859375
34,113000000,imu2_frame,-0.0147705078125,0.00189208984375,-0.2958984375,0.95513916015625,-0.01171875,-0.01953125,0.0,0.0625,0.09765625,9.84765625
34,138000000,imu2_frame,-0.0147705078125,0.00189208984375,-0.2958984375,0.95513916015625,-0.01171875,-0.01953125,0.0,0.1015625,-0.01953125,9.76953125
34,163000000,imu2_frame,-0.0147705078125,0.00189208984375,-0.2958984375,0.95513916015625,0.0,-0.017578125,0.01953125,0.1015625,-0.01953125,9.76953125
34,188000000,imu2_frame,-0.0147705078125,0.00189208984375,-0.2958984375,0.95513916015625,0.013671875,-0.033203125,-0.013671875,0.1015625,-0.01953125,9.76953125
34,213000000,imu2_frame,-0.0147705078125,0.00189208984375,-0.2958984375,0.95513916015625,0.013671875,-0.033203125,-0.013671875,0.13671875,-0.171875,9.84765625
34,238000000,imu2_frame,-0.0147705078125,0.00189208984375,-0.2958984375,0.95513916015625,0.013671875,-0.033203125,-0.013671875,-0.015625,-0.09375,9.80859375
34,263000000,imu2_frame,-0.0147705078125,0.00189208984375,-0.2958984375,0.95513916015625,0.0078125,-0.033203125,-0.021484375,-0.015625,-0.09375,9.80859375
34,288000000,imu2_frame,-0.0147705078125,0.00189208984375,-0.2958984375,0.95513916015625,0.00390625,-0.0078125,-0.03515625,-0.015625,-0.09375,9.80859375
34,313000000,imu2_frame,-0.0147705078125,0.00189208984375,-0.2958984375,0.95513916015625,0.00390625,-0.0078125,-0.03515625,-0.08984375,-0.171875,9.76953125
34,338000000,imu2_frame,-0.0147705078125,0.00189208984375,-0.2958984375,0.95513916015625,-0.021484375,0.03125,-0.041015625,-0.08984375,-0.171875,9.76953125
34,363000000,imu2_frame,-0.0147705078125,0.00189208984375,-0.2958984375,0.95513916015625,-0.021484375,0.03125,-0.041015625,0.1015625,-0.171875,9.765625
34,388000000,imu2_frame,-0.0147705078125,0.00189208984375,-0.2958984375,0.95513916015625,0.009765625,-0.0234375,-0.119140625,0.1015625,-0.171875,9.765625
34,413000000,imu2_frame,-0.0147705078125,0.00189208984375,-0.2958984375,0.95513916015625,0.009765625,-0.0234375,-0.119140625,0.0625,-0.2109375,9.80859375
34,438000000,imu2_frame,-0.0147705078125,0.00189208984375,-0.2958984375,0.95513916015625,0.009765625,-0.0234375,-0.119140625,0.13671875,-0.28515625,9.80859375
34,463000000,imu2_frame,-0.0147705078125,0.00189208984375,-0.2958984375,0.95513916015625,0.009765625,-0.0234375,-0.119140625,0.0234375,0.01953125,9.84765625
34,488000000,imu2_frame,-0.0147705078125,0.00189208984375,-0.2958984375,0.95513916015625,0.01953125,0.005859375,-0.197265625,0.0234375,0.01953125,9.84765625
34,513000000,imu2_frame,-0.0147705078125,0.00189208984375,-0.2958984375,0.95513916015625,0.01953125,0.005859375,-0.197265625,0.0234375,-0.2109375,9.8046875
34,538000000,imu2_frame,-0.0147705078125,0.00189208984375,-0.2958984375,0.95513916015625,0.01953125,0.005859375,-0.197265625,0.13671875,-0.59375,9.84375
34,563000000,imu2_frame,-0.0147705078125,0.00189208984375,-0.2958984375,0.95513916015625,0.0234375,-0.0078125,-0.109375,0.13671875,-0.59375,9.84375
34,588000000,imu2_frame,-0.0147705078125,0.00189208984375,-0.2958984375,0.95513916015625,-0.005859375,-0.00390625,0.048828125,0.13671875,-0.59375,9.84375
34,613000000,imu2_frame,-0.0147705078125,0.00189208984375,-0.2958984375,0.95513916015625,-0.005859375,-0.00390625,0.048828125,0.0625,-0.09375,9.80859375
34,638000000,imu2_frame,-0.0147705078125,0.00189208984375,-0.2958984375,0.95513916015625,-0.005859375,-0.00390625,0.048828125,0.0234375,0.13671875,9.84375
34,663000000,imu2_frame,-0.0147705078125,0.00189208984375,-0.2958984375,0.95513916015625,-0.005859375,-0.00390625,-0.0546875,0.0234375,0.13671875,9.84375
34,688000000,imu2_frame,-0.0147705078125,0.00189208984375,-0.2958984375,0.95513916015625,-0.0078125,0.029296875,-0.111328125,0.0234375,0.13671875,9.84375
34,713000000,imu2_frame,-0.0147705078125,0.00189208984375,-0.2958984375,0.95513916015625,-0.0078125,0.029296875,-0.111328125,0.0234375,-0.28515625,9.765625
34,738000000,imu2_frame,-0.0147705078125,0.00189208984375,-0.2958984375,0.95513916015625,0.01171875,-0.03515625,-0.072265625,0.0234375,-0.28515625,9.765625
34,763000000,imu2_frame,-0.0147705078125,0.00189208984375,-0.2958984375,0.95513916015625,0.01171875,-0.03515625,-0.072265625,0.0625,-0.1328125,9.80859375
34,788000000,imu2_frame,-0.0147705078125,0.00189208984375,-0.2958984375,0.95513916015625,-0.001953125,0.001953125,-0.072265625,0.0625,-0.1328125,9.80859375
34,813000000,imu2_frame,-0.0147705078125,0.00189208984375,-0.2958984375,0.95513916015625,-0.001953125,0.001953125,-0.072265625,0.0234375,-0.32421875,9.80859375
34,838000000,imu2_frame,-0.0147705078125,0.00189208984375,-0.2958984375,0.95513916015625,-0.001953125,0.001953125,-0.072265625,0.0625,-0.24609375,9.80859375
34,863000000,imu2_frame,-0.0147705078125,0.00189208984375,-0.2958984375,0.95513916015625,-0.001953125,0.001953125,-0.072265625,0.1015625,-0.09375,9.84375
34,888000000,imu2_frame,-0.0147705078125,0.00189208984375,-0.2958984375,0.95513916015625,0.060546875,0.00390625,-0.091796875,0.1015625,-0.09375,9.84375
34,913000000,imu2_frame,-0.0147705078125,0.00189208984375,-0.2958984375,0.95513916015625,0.060546875,0.00390625,-0.091796875,0.0625,0.171875,9.8046875
34,938000000,imu2_frame,-0.0147705078125,0.00189208984375,-0.2958984375,0.95513916015625,0.060546875,0.00390625,-0.091796875,-0.0546875,-0.0546875,9.84765625
34,963000000,imu2_frame,-0.0147705078125,0.00189208984375,-0.2958984375,0.95513916015625,-0.052734375,0.00390625,0.001953125,-0.0546875,-0.0546875,9.84765625
34,988000000,imu2_frame,-0.0147705078125,0.00189208984375,-0.2958984375,0.95513916015625,0.04296875,0.013671875,-0.037109375,-0.0546875,-0.0546875,9.84765625
35,13000000,imu2_frame,-0.0147705078125,0.00189208984375,-0.2958984375,0.95513916015625,0.04296875,0.013671875,-0.037109375,-0.0546875,0.25,9.80859375
35,38000000,imu2_frame,-0.0147705078125,0.00189208984375,-0.2958984375,0.95513916015625,0.04296875,0.013671875,-0.037109375,0.1015625,-0.4765625,9.80859375
35,63000000,imu2_frame,-0.0147705078125,0.00189208984375,-0.2958984375,0.95513916015625,0.00390625,-0.021484375,-0.05859375,0.1015625,-0.4765625,9.80859375
35,88000000,imu2_frame,-0.0147705078125,0.00189208984375,-0.2958984375,0.95513916015625,-0.103515625,-0.03125,-0.01171875,0.1015625,-0.4765625,9.80859375
35,113000000,imu2_frame,-0.0147705078125,0.00189208984375,-0.2958984375,0.95513916015625,-0.103515625,-0.03125,-0.01171875,0.0625,-0.28515625,9.84375
35,138000000,imu2_frame,-0.0147705078125,0.00189208984375,-0.2958984375,0.95513916015625,0.041015625,0.0234375,-0.060546875,0.0625,-0.28515625,9.84375
35,163000000,imu2_frame,-0.0147705078125,0.00189208984375,-0.2958984375,0.95513916015625,0.041015625,0.0234375,-0.060546875,-0.015625,-0.36328125,9.84375
35,188000000,imu2_frame,-0.0147705078125,0.00189208984375,-0.2958984375,0.95513916015625,-0.00390625,0.017578125,0.0,-0.015625,-0.36328125,9.84375
35,213000000,imu2_frame,-0.0147705078125,0.00189208984375,-0.2958984375,0.95513916015625,-0.00390625,0.017578125,0.0,0.0234375,-0.40234375,9.84765625
35,238000000,imu2_frame,-0.0147705078125,0.00189208984375,-0.2958984375,0.95513916015625,-0.00390625,0.017578125,0.0,0.1015625,-0.2109375,9.80859375
35,263000000,imu2_frame,-0.0147705078125,0.00189208984375,-0.2958984375,0.95513916015625,-0.00390625,0.017578125,0.0,-0.015625,0.05859375,9.80859375
35,288000000,imu2_frame,-0.0147705078125,0.00189208984375,-0.2958984375,0.95513916015625,-0.04296875,0.0078125,-0.033203125,-0.015625,0.05859375,9.80859375
35,313000000,imu2_frame,-0.0147705078125,0.00189208984375,-0.2958984375,0.95513916015625,-0.04296875,0.0078125,-0.033203125,0.0234375,0.09765625,9.84375
35,338000000,imu2_frame,-0.0147705078125,0.00189208984375,-0.2958984375,0.95513916015625,-0.04296875,0.0078125,-0.033203125,0.0234375,-0.09375,9.8046875
35,363000000,imu2_frame,-0.0147705078125,0.00189208984375,-0.2958984375,0.95513916015625,0.0234375,-0.013671875,-0.021484375,0.0234375,-0.09375,9.8046875
35,388000000,imu2_frame,-0.0147705078125,0.00189208984375,-0.2958984375,0.95513916015625,-0.009765625,0.013671875,-0.0625,0.0234375,-0.09375,9.8046875
35,413000000,imu2_frame,-0.0147705078125,0.00189208984375,-0.2958984375,0.95513916015625,-0.009765625,0.013671875,-0.0625,0.0234375,-0.24609375,9.8046875
35,438000000,imu2_frame,-0.0147705078125,0.00189208984375,-0.2958984375,0.95513916015625,-0.009765625,0.013671875,-0.0625,0.0234375,-0.24609375,9.8046875
35,463000000,imu2_frame,-0.0147705078125,0.00189208984375,-0.2958984375,0.95513916015625,-0.009765625,0.009765625,-0.0703125,0.0234375,-0.24609375,9.8046875
35,488000000,imu2_frame,-0.0147705078125,0.00189208984375,-0.2958984375,0.95513916015625,0.029296875,0.0390625,-0.14453125,0.0234375,-0.24609375,9.8046875
35,513000000,imu2_frame,-0.0147705078125,0.00189208984375,-0.2958984375,0.95513916015625,0.029296875,0.0390625,-0.14453125,-0.0546875,-0.2109375,9.80859375
35,538000000,imu2_frame,-0.0147705078125,0.00189208984375,-0.2958984375,0.95513916015625,-0.01953125,0.025390625,-0.140625,-0.0546875,-0.2109375,9.80859375
35,563000000,imu2_frame,-0.0147705078125,0.00189208984375,-0.2958984375,0.95513916015625,-0.01953125,0.025390625,-0.140625,-0.015625,-0.5546875,9.765625
35,588000000,imu2_frame,-0.0147705078125,0.00189208984375,-0.2958984375,0.95513916015625,0.005859375,0.00390625,-0.10546875,-0.015625,-0.5546875,9.765625
35,613000000,imu2_frame,-0.0147705078125,0.00189208984375,-0.2958984375,0.95513916015625,0.005859375,0.00390625,-0.10546875,0.1015625,0.5546875,9.8046875
35,638000000,imu2_frame,-0.0147705078125,0.00189208984375,-0.2958984375,0.95513916015625,0.005859375,0.00390625,-0.10546875,0.0625,-0.2109375,9.80859375
35,663000000,imu2_frame,-0.0147705078125,0.00189208984375,-0.2958984375,0.95513916015625,0.005859375,0.00390625,-0.10546875,0.0625,-0.171875,9.8046875
35,688000000,imu2_frame,-0.0147705078125,0.00189208984375,-0.2958984375,0.95513916015625,-0.00390625,-0.015625,-0.033203125,0.0625,-0.171875,9.8046875
35,713000000,imu2_frame,-0.0147705078125,0.00189208984375,-0.2958984375,0.95513916015625,-0.00390625,-0.015625,-0.033203125,0.0625,-0.24609375,9.80859375
35,738000000,imu2_frame,-0.0147705078125,0.00189208984375,-0.2958984375,0.95513916015625,-0.00390625,-0.015625,-0.033203125,-0.015625,-0.171875,9.84765625
35,763000000,imu2_frame,-0.0147705078125,0.00189208984375,-0.2958984375,0.95513916015625,-0.015625,0.005859375,-0.056640625,-0.015625,-0.171875,9.84765625
35,788000000,imu2_frame,-0.0147705078125,0.00189208984375,-0.2958984375,0.95513916015625,0.015625,0.017578125,-0.052734375,-0.015625,-0.171875,9.84765625
35,813000000,imu2_frame,-0.0147705078125,0.00189208984375,-0.2958984375,0.95513916015625,0.015625,0.017578125,-0.052734375,0.0234375,-0.24609375,9.8046875
35,838000000,imu2_frame,-0.0147705078125,0.00189208984375,-0.2958984375,0.95513916015625,0.015625,0.017578125,-0.052734375,0.0234375,-0.2109375,9.765625
35,863000000,imu2_frame,-0.0147705078125,0.00189208984375,-0.2958984375,0.95513916015625,-0.078125,0.015625,0.025390625,0.0234375,-0.2109375,9.765625
35,888000000,imu2_frame,-0.0147705078125,0.00189208984375,-0.2958984375,0.95513916015625,0.046875,0.0,-0.021484375,0.0234375,-0.2109375,9.765625
35,913000000,imu2_frame,-0.0147705078125,0.00189208984375,-0.2958984375,0.95513916015625,0.046875,0.0,-0.021484375,0.1015625,-0.2109375,9.76953125
35,938000000,imu2_frame,-0.0147705078125,0.00189208984375,-0.2958984375,0.95513916015625,-0.005859375,-0.017578125,-0.048828125,0.1015625,-0.2109375,9.76953125
35,963000000,imu2_frame,-0.0147705078125,0.00189208984375,-0.2958984375,0.95513916015625,-0.005859375,-0.017578125,-0.048828125,0.0234375,-0.171875,9.80859375
35,988000000,imu2_frame,-0.0147705078125,0.00189208984375,-0.2958984375,0.95513916015625,-0.009765625,-0.01953125,-0.0625,0.0234375,-0.171875,9.80859375
36,13000000,imu2_frame,-0.0147705078125,0.00189208984375,-0.2958984375,0.95513916015625,-0.009765625,-0.01953125,-0.0625,0.0234375,-0.24609375,9.84765625
36,38000000,imu2_frame,-0.0147705078125,0.00189208984375,-0.2958984375,0.95513916015625,-0.009765625,-0.01953125,-0.0625,0.0625,-0.36328125,9.84375
36,63000000,imu2_frame,-0.0147705078125,0.00189208984375,-0.2958984375,0.95513916015625,-0.009765625,-0.01953125,-0.0625,0.0234375,-0.1328125,9.8046875
36,88000000,imu2_frame,-0.0147705078125,0.00189208984375,-0.2958984375,0.95513916015625,0.0,-0.015625,-0.01171875,0.0234375,-0.1328125,9.8046875
36,113000000,imu2_frame,-0.01123046875,0.00189208984375,-0.37158203125,0.9283447265625,0.0,-0.015625,-0.01171875,0.0234375,-0.1328125,9.8046875
36,138000000,imu2_frame,-0.01123046875,0.00189208984375,-0.37158203125,0.9283447265625,0.0,-0.015625,-0.01171875,-0.08984375,-0.28515625,9.84765625
36,163000000,imu2_frame,-0.01123046875,0.00189208984375,-0.37158203125,0.9283447265625,-0.01171875,0.0078125,-0.216796875,-0.08984375,-0.28515625,9.84765625
36,188000000,imu2_frame,-0.01123046875,0.00189208984375,-0.37158203125,0.9283447265625,0.01171875,-0.00390625,-0.1328125,-0.08984375,-0.28515625,9.84765625
36,213000000,imu2_frame,-0.01123046875,0.00189208984375,-0.37158203125,0.9283447265625,0.01171875,-0.00390625,-0.1328125,0.0234375,-0.09375,9.8046875
36,238000000,imu2_frame,-0.01123046875,0.00189208984375,-0.37158203125,0.9283447265625,0.01171875,-0.00390625,-0.1328125,-0.015625,0.05859375,9.80859375
36,263000000,imu2_frame,-0.01123046875,0.00189208984375,-0.37158203125,0.9283447265625,-0.00390625,-0.00390625,-0.033203125,-0.015625,0.05859375,9.80859375
36,288000000,imu2_frame,-0.01123046875,0.00189208984375,-0.37158203125,0.9283447265625,-0.021484375,0.01171875,-0.064453125,-0.015625,0.05859375,9.80859375
36,313000000,imu2_frame,-0.01123046875,0.00189208984375,-0.37158203125,0.9283447265625,-0.021484375,0.01171875,-0.064453125,-0.015625,0.05859375,9.80859375
36,338000000,imu2_frame,-0.01123046875,0.00189208984375,-0.37158203125,0.9283447265625,0.00390625,0.001953125,0.0,-0.015625,0.05859375,9.80859375
36,363000000,imu2_frame,-0.01123046875,0.00189208984375,-0.37158203125,0.9283447265625,0.00390625,0.001953125,0.0,-0.0546875,-0.171875,9.8046875
36,388000000,imu2_frame,-0.01123046875,0.00189208984375,-0.37158203125,0.9283447265625,0.001953125,0.001953125,-0.001953125,-0.0546875,-0.171875,9.8046875
36,413000000,imu2_frame,-0.01123046875,0.00189208984375,-0.37158203125,0.9283447265625,0.001953125,0.001953125,-0.001953125,-0.015625,-0.2109375,9.80859375
36,438000000,imu2_frame,-0.01123046875,0.00189208984375,-0.37158203125,0.9283447265625,0.001953125,0.001953125,-0.001953125,-0.015625,-0.171875,9.8046875
36,463000000,imu2_frame,-0.01123046875,0.00189208984375,-0.37158203125,0.9283447265625,0.001953125,0.001953125,-0.001953125,-0.0546875,-0.171875,9.8046875
36,488000000,imu2_frame,-0.01123046875,0.00189208984375,-0.37158203125,0.9283447265625,-0.00390625,0.0,0.0,-0.0546875,-0.171875,9.8046875
36,513000000,imu2_frame,-0.01123046875,0.00189208984375,-0.37158203125,0.9283447265625,-0.00390625,0.0,0.0,-0.015625,-0.2109375,9.80859375
36,538000000,imu2_frame,-0.01123046875,0.00189208984375,-0.37158203125,0.9283447265625,-0.00390625,0.0,0.0,-0.015625,-0.171875,9.8046875
36,563000000,imu2_frame,-0.01123046875,0.00189208984375,-0.37158203125,0.9283447265625,0.0,0.0,-0.00390625,-0.015625,-0.171875,9.8046875
36,588000000,imu2_frame,-0.01123046875,0.00189208984375,-0.37158203125,0.9283447265625,0.00390625,0.001953125,-0.001953125,-0.015625,-0.171875,9.8046875
36,613000000,imu2_frame,-0.01043701171875,0.0025634765625,-0.381103515625,0.9244384765625,0.00390625,0.001953125,-0.001953125,-0.015625,-0.171875,9.8046875
36,638000000,imu2_frame,-0.01043701171875,0.0025634765625,-0.381103515625,0.9244384765625,0.00390625,0.001953125,-0.001953125,-0.015625,-0.2109375,9.80859375
36,663000000,imu2_frame,-0.01043701171875,0.0025634765625,-0.381103515625,0.9244384765625,0.001953125,0.001953125,-0.005859375,-0.015625,-0.2109375,9.80859375
36,688000000,imu2_frame,-0.01043701171875,0.0025634765625,-0.381103515625,0.9244384765625,-0.001953125,0.001953125,0.0,-0.015625,-0.2109375,9.80859375
36,713000000,imu2_frame,-0.01043701171875,0.0025634765625,-0.381103515625,0.9244384765625,-0.001953125,0.001953125,0.0,-0.015625,-0.2109375,9.80859375
36,738000000,imu2_frame,-0.01043701171875,0.0025634765625,-0.381103515625,0.9244384765625,0.0,0.0,-0.001953125,-0.015625,-0.2109375,9.80859375
36,763000000,imu2_frame,-0.01043701171875,0.0025634765625,-0.381103515625,0.9244384765625,0.0,0.0,-0.001953125,-0.0546875,-0.171875,9.8046875
36,788000000,imu2_frame,-0.01043701171875,0.0025634765625,-0.381103515625,0.9244384765625,0.00390625,0.001953125,-0.001953125,-0.0546875,-0.171875,9.8046875
36,813000000,imu2_frame,-0.01043701171875,0.0025634765625,-0.381103515625,0.9244384765625,0.00390625,0.001953125,-0.001953125,-0.0546875,-0.2109375,9.80859375
36,838000000,imu2_frame,-0.01043701171875,0.0025634765625,-0.381103515625,0.9244384765625,0.00390625,0.001953125,-0.001953125,-0.0546875,-0.171875,9.8046875
36,863000000,imu2_frame,-0.01043701171875,0.0025634765625,-0.381103515625,0.9244384765625,0.00390625,0.001953125,-0.001953125,-0.0546875,-0.171875,9.8046875
36,888000000,imu2_frame,-0.01043701171875,0.0025634765625,-0.381103515625,0.9244384765625,0.005859375,0.001953125,-0.001953125,-0.0546875,-0.171875,9.8046875
36,913000000,imu2_frame,-0.00897216796875,0.003173828125,-0.38128662109375,0.92437744140625,0.005859375,0.001953125,-0.001953125,-0.0546875,-0.171875,9.8046875
36,938000000,imu2_frame,-0.00897216796875,0.003173828125,-0.38128662109375,0.92437744140625,0.005859375,0.001953125,-0.001953125,-0.0546875,-0.171875,9.765625
36,963000000,imu2_frame,-0.00897216796875,0.003173828125,-0.38128662109375,0.92437744140625,0.0,0.001953125,-0.001953125,-0.0546875,-0.171875,9.765625
36,988000000,imu2_frame,-0.00897216796875,0.003173828125,-0.38128662109375,0.92437744140625,0.001953125,0.0,-0.001953125,-0.0546875,-0.171875,9.765625
37,13000000,imu2_frame,-0.00897216796875,0.003173828125,-0.38128662109375,0.92437744140625,0.001953125,0.0,0.001953125,-0.0546875,-0.171875,9.765625
37,38000000,imu2_frame,-0.00897216796875,0.003173828125,-0.38128662109375,0.92437744140625,0.001953125,0.0,0.001953125,-0.0546875,-0.171875,9.8046875
37,63000000,imu2_frame,-0.00897216796875,0.003173828125,-0.38128662109375,0.92437744140625,0.001953125,0.001953125,-0.00390625,-0.0546875,-0.171875,9.8046875
37,88000000,imu2_frame,-0.00897216796875,0.003173828125,-0.38128662109375,0.92437744140625,0.0,-0.001953125,0.001953125,-0.0546875,-0.171875,9.8046875
37,113000000,imu2_frame,-0.00897216796875,0.003173828125,-0.38128662109375,0.92437744140625,0.0,-0.001953125,0.001953125,-0.0546875,-0.2109375,9.80859375
37,138000000,imu2_frame,-0.00897216796875,0.003173828125,-0.38128662109375,0.92437744140625,0.0,0.001953125,0.0,-0.0546875,-0.2109375,9.80859375
37,163000000,imu2_frame,-0.00897216796875,0.003173828125,-0.38128662109375,0.92437744140625,0.0,0.001953125,0.0,-0.0546875,-0.171875,9.8046875
37,188000000,imu2_frame,-0.00897216796875,0.003173828125,-0.38128662109375,0.92437744140625,0.001953125,0.0,0.001953125,-0.0546875,-0.171875,9.8046875
37,213000000,imu2_frame,-0.00897216796875,0.003173828125,-0.38128662109375,0.92437744140625,0.001953125,0.0,0.001953125,-0.0546875,-0.171875,9.8046875
37,238000000,imu2_frame,-0.00897216796875,0.003173828125,-0.38128662109375,0.92437744140625,0.001953125,0.0,0.001953125,-0.0546875,-0.2109375,9.80859375
37,263000000,imu2_frame,-0.00897216796875,0.003173828125,-0.38128662109375,0.92437744140625,0.001953125,0.0,0.001953125,-0.08984375,-0.2109375,9.8046875
37,288000000,imu2_frame,-0.00897216796875,0.003173828125,-0.38128662109375,0.92437744140625,0.0,0.0,0.0,-0.08984375,-0.2109375,9.8046875
37,313000000,imu2_frame,-0.00897216796875,0.003173828125,-0.38128662109375,0.92437744140625,0.0,0.0,0.0,-0.08984375,-0.2109375,9.8046875
37,338000000,imu2_frame,-0.00897216796875,0.003173828125,-0.38128662109375,0.92437744140625,0.0,0.0,0.0,-0.0546875,-0.2109375,9.80859375
37,363000000,imu2_frame,-0.00897216796875,0.003173828125,-0.38128662109375,0.92437744140625,0.0,0.001953125,0.0,-0.0546875,-0.2109375,9.80859375
37,388000000,imu2_frame,-0.00897216796875,0.003173828125,-0.38128662109375,0.92437744140625,0.001953125,0.0,0.0,-0.0546875,-0.2109375,9.80859375
37,413000000,imu2_frame,-0.00897216796875,0.003173828125,-0.38128662109375,0.92437744140625,-0.001953125,0.001953125,-0.001953125,-0.0546875,-0.2109375,9.80859375
37,438000000,imu2_frame,-0.00897216796875,0.003173828125,-0.38128662109375,0.92437744140625,-0.001953125,0.001953125,-0.001953125,-0.0546875,-0.2109375,9.80859375
37,463000000,imu2_frame,-0.00897216796875,0.003173828125,-0.38128662109375,0.92437744140625,0.001953125,0.0,-0.005859375,-0.0546875,-0.2109375,9.80859375
37,488000000,imu2_frame,-0.00897216796875,0.003173828125,-0.38128662109375,0.92437744140625,0.0,0.0,0.0,-0.0546875,-0.2109375,9.80859375
37,513000000,imu2_frame,-0.00897216796875,0.003173828125,-0.38128662109375,0.92437744140625,0.0,0.0,0.0,-0.0546875,-0.171875,9.8046875
37,538000000,imu2_frame,-0.00897216796875,0.003173828125,-0.38128662109375,0.92437744140625,0.0,0.001953125,0.001953125,-0.0546875,-0.171875,9.8046875
37,563000000,imu2_frame,-0.00897216796875,0.003173828125,-0.38128662109375,0.92437744140625,0.0,0.001953125,0.001953125,-0.0546875,-0.171875,9.8046875
37,588000000,imu2_frame,-0.00897216796875,0.003173828125,-0.38128662109375,0.92437744140625,-0.001953125,0.0,0.0,-0.0546875,-0.171875,9.8046875
37,613000000,imu2_frame,-0.00897216796875,0.003173828125,-0.38128662109375,0.92437744140625,0.001953125,0.001953125,0.0,-0.0546875,-0.171875,9.8046875
37,638000000,imu2_frame,-0.00897216796875,0.003173828125,-0.38128662109375,0.92437744140625,0.001953125,0.001953125,0.0,-0.0546875,-0.171875,9.8046875
37,663000000,imu2_frame,-0.00897216796875,0.003173828125,-0.38128662109375,0.92437744140625,0.001953125,0.001953125,0.0,-0.0546875,-0.171875,9.8046875
37,688000000,imu2_frame,-0.00897216796875,0.003173828125,-0.38128662109375,0.92437744140625,0.00390625,0.001953125,0.005859375,-0.0546875,-0.171875,9.8046875
37,713000000,imu2_frame,-0.00897216796875,0.003173828125,-0.38128662109375,0.92437744140625,0.00390625,0.001953125,0.0078125,-0.0546875,-0.171875,9.8046875
37,738000000,imu2_frame,-0.00897216796875,0.003173828125,-0.38128662109375,0.92437744140625,0.00390625,0.001953125,0.0078125,-0.0546875,-0.2109375,9.80859375
37,763000000,imu2_frame,-0.00897216796875,0.003173828125,-0.38128662109375,0.92437744140625,-0.001953125,0.0,0.0,-0.0546875,-0.2109375,9.80859375
37,788000000,imu2_frame,-0.00897216796875,0.003173828125,-0.38128662109375,0.92437744140625,-0.001953125,0.0,0.0,-0.0546875,-0.171875,9.8046875
37,813000000,imu2_frame,-0.00897216796875,0.003173828125,-0.38128662109375,0.92437744140625,-0.00390625,-0.001953125,0.0,-0.0546875,-0.171875,9.8046875
37,838000000,imu2_frame,-0.00897216796875,0.003173828125,-0.38128662109375,0.92437744140625,-0.00390625,-0.001953125,0.0,-0.0546875,-0.2109375,9.80859375
37,863000000,imu2_frame,-0.00897216796875,0.003173828125,-0.38128662109375,0.92437744140625,-0.00390625,-0.001953125,0.0,-0.12890625,-0.1328125,9.8046875
37,888000000,imu2_frame,-0.00897216796875,0.003173828125,-0.38128662109375,0.92437744140625,0.001953125,-0.001953125,0.001953125,-0.12890625,-0.1328125,9.8046875
37,913000000,imu2_frame,-0.00897216796875,0.003173828125,-0.38128662109375,0.92437744140625,-0.001953125,0.001953125,0.0,-0.12890625,-0.1328125,9.8046875
37,938000000,imu2_frame,-0.00897216796875,0.003173828125,-0.38128662109375,0.92437744140625,-0.001953125,0.001953125,0.0,-0.0546875,-0.2109375,9.80859375
37,963000000,imu2_frame,-0.00897216796875,0.003173828125,-0.38128662109375,0.92437744140625,-0.001953125,0.001953125,0.0,-0.0546875,-0.171875,9.8046875
37,988000000,imu2_frame,-0.00897216796875,0.003173828125,-0.38128662109375,0.92437744140625,-0.001953125,0.0,0.0,-0.0546875,-0.171875,9.8046875
38,13000000,imu2_frame,-0.00897216796875,0.003173828125,-0.38128662109375,0.92437744140625,0.001953125,0.001953125,0.0,-0.0546875,-0.171875,9.8046875
38,38000000,imu2_frame,-0.00897216796875,0.003173828125,-0.38128662109375,0.92437744140625,0.001953125,0.001953125,0.0,-0.08984375,-0.171875,9.80859375
38,63000000,imu2_frame,-0.00897216796875,0.003173828125,-0.38128662109375,0.92437744140625,0.001953125,0.001953125,0.0,-0.08984375,-0.171875,9.80859375
38,88000000,imu2_frame,-0.00897216796875,0.003173828125,-0.38128662109375,0.92437744140625,0.001953125,0.0,-0.001953125,-0.08984375,-0.171875,9.80859375
38,113000000,imu2_frame,-0.00897216796875,0.003173828125,-0.38128662109375,0.92437744140625,0.001953125,0.0,0.0,-0.08984375,-0.171875,9.80859375
38,138000000,imu2_frame,-0.00897216796875,0.003173828125,-0.38128662109375,0.92437744140625,0.001953125,0.0,0.0,-0.0546875,-0.171875,9.8046875
38,163000000,imu2_frame,-0.00897216796875,0.003173828125,-0.38128662109375,0.92437744140625,0.0,0.0,-0.001953125,-0.0546875,-0.171875,9.8046875
38,188000000,imu2_frame,-0.00897216796875,0.003173828125,-0.38128662109375,0.92437744140625,0.0,0.0,-0.001953125,-0.0546875,-0.2109375,9.80859375
38,213000000,imu2_frame,-0.00897216796875,0.003173828125,-0.38128662109375,0.92437744140625,0.001953125,-0.001953125,0.0,-0.0546875,-0.2109375,9.80859375
38,238000000,imu2_frame,-0.00897216796875,0.003173828125,-0.38128662109375,0.92437744140625,0.001953125,-0.001953125,0.0,-0.0546875,-0.171875,9.84765625
38,263000000,imu2_frame,-0.00897216796875,0.003173828125,-0.38128662109375,0.92437744140625,0.001953125,-0.001953125,0.0,-0.0546875,-0.2109375,9.80859375
38,288000000,imu2_frame,-0.00897216796875,0.003173828125,-0.38128662109375,0.92437744140625,0.00390625,0.001953125,0.0,-0.0546875,-0.2109375,9.80859375
38,313000000,imu2_frame,-0.00897216796875,0.003173828125,-0.38128662109375,0.92437744140625,0.00390625,0.0,0.001953125,-0.0546875,-0.2109375,9.80859375
38,338000000,imu2_frame,-0.00897216796875,0.003173828125,-0.38128662109375,0.92437744140625,0.001953125,0.0,0.0,-0.0546875,-0.2109375,9.80859375
38,363000000,imu2_frame,-0.00897216796875,0.003173828125,-0.38128662109375,0.92437744140625,0.001953125,0.0,0.0,-0.015625,-0.171875,9.8046875
38,388000000,imu2_frame,-0.00897216796875,0.003173828125,-0.38128662109375,0.92437744140625,0.0,0.001953125,0.0,-0.015625,-0.171875,9.8046875
38,413000000,imu2_frame,-0.00897216796875,0.003173828125,-0.38128662109375,0.92437744140625,0.001953125,0.0,0.0,-0.015625,-0.171875,9.8046875
38,438000000,imu2_frame,-0.00897216796875,0.003173828125,-0.38128662109375,0.92437744140625,0.001953125,0.0,0.0,-0.0546875,-0.171875,9.8046875
38,463000000,imu2_frame,-0.00897216796875,0.003173828125,-0.38128662109375,0.92437744140625,0.001953125,0.0,0.0,-0.015625,-0.2109375,9.84375
38,488000000,imu2_frame,-0.00897216796875,0.003173828125,-0.38128662109375,0.92437744140625,0.001953125,0.0,-0.001953125,-0.015625,-0.2109375,9.84375
38,513000000,imu2_frame,-0.00897216796875,0.003173828125,-0.38128662109375,0.92437744140625,0.0,0.0,0.0,-0.015625,-0.2109375,9.84375
38,538000000,imu2_frame,-0.00897216796875,0.003173828125,-0.38128662109375,0.92437744140625,0.0,0.0,0.0,-0.0546875,-0.2109375,9.80859375
38,563000000,imu2_frame,-0.00897216796875,0.003173828125,-0.38128662109375,0.92437744140625,0.0,0.001953125,0.0,-0.0546875,-0.2109375,9.80859375
38,588000000,imu2_frame,-0.00897216796875,0.003173828125,-0.38128662109375,0.92437744140625,0.0,0.001953125,0.0,-0.08984375,-0.171875,9.80859375
38,613000000,imu2_frame,-0.00897216796875,0.003173828125,-0.38128662109375,0.92437744140625,0.001953125,0.001953125,-0.00390625,-0.08984375,-0.171875,9.80859375
38,638000000,imu2_frame,-0.00897216796875,0.003173828125,-0.38128662109375,0.92437744140625,0.001953125,0.001953125,-0.00390625,-0.0546875,-0.2109375,9.80859375
38,663000000,imu2_frame,-0.00897216796875,0.003173828125,-0.38128662109375,0.92437744140625,0.001953125,0.001953125,-0.00390625,-0.08984375,-0.171875,9.80859375
38,688000000,imu2_frame,-0.00897216796875,0.003173828125,-0.38128662109375,0.92437744140625,-0.005859375,-0.001953125,-0.009765625,-0.08984375,-0.171875,9.80859375
38,713000000,imu2_frame,-0.00897216796875,0.003173828125,-0.38128662109375,0.92437744140625,0.001953125,0.001953125,-0.00390625,-0.08984375,-0.171875,9.80859375
38,738000000,imu2_frame,-0.00897216796875,0.003173828125,-0.38128662109375,0.92437744140625,0.001953125,0.001953125,-0.00390625,-0.08984375,-0.171875,9.80859375
38,763000000,imu2_frame,-0.00897216796875,0.003173828125,-0.38128662109375,0.92437744140625,0.001953125,0.001953125,-0.00390625,-0.12890625,-0.171875,9.80859375
38,788000000,imu2_frame,-0.00897216796875,0.003173828125,-0.38128662109375,0.92437744140625,-0.001953125,0.0,0.0,-0.12890625,-0.171875,9.80859375
38,813000000,imu2_frame,-0.00897216796875,0.003173828125,-0.38128662109375,0.92437744140625,-0.001953125,-0.001953125,0.0,-0.12890625,-0.171875,9.80859375
38,838000000,imu2_frame,-0.00897216796875,0.003173828125,-0.38128662109375,0.92437744140625,-0.001953125,-0.001953125,0.0,-0.08984375,-0.171875,9.80859375
38,863000000,imu2_frame,-0.00897216796875,0.003173828125,-0.38128662109375,0.92437744140625,-0.001953125,-0.001953125,0.0,-0.12890625,-0.171875,9.80859375
38,888000000,imu2_frame,-0.00897216796875,0.003173828125,-0.38128662109375,0.92437744140625,-0.001953125,-0.00390625,0.0,-0.12890625,-0.171875,9.80859375
38,913000000,imu2_frame,-0.00897216796875,0.003173828125,-0.38128662109375,0.92437744140625,0.001953125,0.0,-0.001953125,-0.12890625,-0.171875,9.80859375
38,938000000,imu2_frame,-0.00897216796875,0.003173828125,-0.38128662109375,0.92437744140625,0.001953125,0.0,-0.001953125,-0.08984375,-0.171875,9.80859375
38,963000000,imu2_frame,-0.00897216796875,0.003173828125,-0.38128662109375,0.92437744140625,0.0,0.001953125,0.0,-0.08984375,-0.171875,9.80859375
38,988000000,imu2_frame,-0.00897216796875,0.003173828125,-0.38128662109375,0.92437744140625,0.0,0.001953125,0.0,-0.0546875,-0.171875,9.8046875
39,13000000,imu2_frame,-0.00897216796875,0.003173828125,-0.38128662109375,0.92437744140625,0.0,0.0,-0.001953125,-0.0546875,-0.171875,9.8046875
39,38000000,imu2_frame,-0.00897216796875,0.003173828125,-0.38128662109375,0.92437744140625,0.0,0.0,-0.001953125,-0.12890625,-0.171875,9.80859375
39,63000000,imu2_frame,-0.00897216796875,0.003173828125,-0.38128662109375,0.92437744140625,0.0,0.0,-0.001953125,-0.08984375,-0.2109375,9.8046875
39,88000000,imu2_frame,-0.00897216796875,0.003173828125,-0.38128662109375,0.92437744140625,-0.00390625,0.0,0.0,-0.08984375,-0.2109375,9.8046875
39,113000000,imu2_frame,-0.00897216796875,0.003173828125,-0.38128662109375,0.92437744140625,0.001953125,0.001953125,-0.001953125,-0.08984375,-0.2109375,9.8046875
39,138000000,imu2_frame,-0.00897216796875,0.003173828125,-0.38128662109375,0.92437744140625,0.001953125,0.001953125,-0.001953125,-0.08984375,-0.171875,9.80859375
39,163000000,imu2_frame,-0.00897216796875,0.003173828125,-0.38128662109375,0.92437744140625,0.001953125,0.001953125,-0.001953125,-0.0546875,-0.2109375,9.80859375
39,188000000,imu2_frame,-0.00897216796875,0.003173828125,-0.38128662109375,0.92437744140625,0.0,-0.001953125,0.001953125,-0.0546875,-0.2109375,9.80859375
39,213000000,imu2_frame,-0.00897216796875,0.003173828125,-0.38128662109375,0.92437744140625,-0.00390625,0.0,0.0,-0.0546875,-0.2109375,9.80859375
39,238000000,imu2_frame,-0.00897216796875,0.003173828125,-0.38128662109375,0.92437744140625,-0.00390625,0.0,0.0,-0.08984375,-0.2109375,9.8046875
39,263000000,imu2_frame,-0.00897216796875,0.003173828125,-0.38128662109375,0.92437744140625,-0.00390625,0.0,0.0,-0.0546875,-0.2109375,9.80859375
39,288000000,imu2_frame,-0.00897216796875,0.003173828125,-0.38128662109375,0.92437744140625,0.0,0.001953125,0.0,-0.0546875,-0.2109375,9.80859375
39,313000000,imu2_frame,-0.00897216796875,0.003173828125,-0.38128662109375,0.92437744140625,0.0,-0.001953125,0.001953125,-0.0546875,-0.2109375,9.80859375
39,338000000,imu2_frame,-0.00897216796875,0.003173828125,-0.38128662109375,0.92437744140625,0.0,-0.001953125,0.001953125,-0.08984375,-0.171875,9.80859375
39,363000000,imu2_frame,-0.00897216796875,0.003173828125,-0.38128662109375,0.92437744140625,0.001953125,0.001953125,-0.001953125,-0.08984375,-0.171875,9.80859375
39,388000000,imu2_frame,-0.00897216796875,0.003173828125,-0.38128662109375,0.92437744140625,0.001953125,0.001953125,-0.001953125,-0.08984375,-0.171875,9.80859375
39,413000000,imu2_frame,-0.00897216796875,0.003173828125,-0.38128662109375,0.92437744140625,0.001953125,0.0,0.001953125,-0.08984375,-0.171875,9.80859375
39,438000000,imu2_frame,-0.00897216796875,0.003173828125,-0.38128662109375,0.92437744140625,0.001953125,0.0,0.001953125,-0.0546875,-0.2109375,9.80859375
39,463000000,imu2_frame,-0.00897216796875,0.003173828125,-0.38128662109375,0.92437744140625,0.001953125,0.0,0.001953125,-0.08984375,-0.2109375,9.8046875
39,488000000,imu2_frame,-0.00897216796875,0.003173828125,-0.38128662109375,0.92437744140625,-0.005859375,0.001953125,-0.001953125,-0.08984375,-0.2109375,9.8046875
39,513000000,imu2_frame,-0.00897216796875,0.003173828125,-0.38128662109375,0.92437744140625,0.0,0.0,0.005859375,-0.08984375,-0.2109375,9.8046875
39,538000000,imu2_frame,-0.00897216796875,0.003173828125,-0.38128662109375,0.92437744140625,0.0,0.0,0.005859375,-0.0546875,-0.2109375,9.80859375
39,563000000,imu2_frame,-0.00897216796875,0.003173828125,-0.38128662109375,0.92437744140625,0.0,0.0,0.005859375,-0.0546875,-0.2109375,9.80859375
39,588000000,imu2_frame,-0.00897216796875,0.003173828125,-0.38128662109375,0.92437744140625,-0.001953125,0.0,0.005859375,-0.0546875,-0.2109375,9.80859375
39,613000000,imu2_frame,-0.00897216796875,0.003173828125,-0.38128662109375,0.92437744140625,-0.001953125,0.0,0.0,-0.0546875,-0.2109375,9.80859375
39,638000000,imu2_frame,-0.00897216796875,0.003173828125,-0.38128662109375,0.92437744140625,-0.001953125,0.0,0.0,-0.015625,-0.171875,9.84765625
39,663000000,imu2_frame,-0.00897216796875,0.003173828125,-0.38128662109375,0.92437744140625,-0.001953125,0.0,0.0,-0.015625,-0.171875,9.8046875
39,688000000,imu2_frame,-0.00897216796875,0.003173828125,-0.38128662109375,0.92437744140625,-0.00390625,0.0,0.0,-0.015625,-0.171875,9.8046875
39,713000000,imu2_frame,-0.00897216796875,0.003173828125,-0.38128662109375,0.92437744140625,-0.00390625,-0.00390625,-0.01171875,-0.015625,-0.171875,9.8046875
39,738000000,imu2_frame,-0.00897216796875,0.003173828125,-0.38128662109375,0.92437744140625,-0.00390625,-0.00390625,-0.01171875,-0.015625,-0.171875,9.8046875
