timestamp_sec,timestamp_nsec,frame_id,orientation_x,orientation_y,orientation_z,orientation_w,angular_velocity_x,angular_velocity_y,angular_velocity_z,linear_acceleration_x,linear_acceleration_y,linear_acceleration_z
937,324000000,imu2_frame,-0.0042724609375,-0.02801513671875,0.0760498046875,0.9967041015625,0.001953125,0.0,0.0,0.61328125,-0.11328125,9.421875
937,344000000,imu2_frame,-0.0042724609375,-0.02801513671875,0.0760498046875,0.9967041015625,0.0,0.0,0.0,0.61328125,-0.11328125,9.421875
937,364000000,imu2_frame,-0.0042724609375,-0.02801513671875,0.0760498046875,0.9967041015625,0.0,0.0,0.0,0.61328125,-0.078125,9.46484375
937,384000000,imu2_frame,-0.0042724609375,-0.02801513671875,0.0760498046875,0.9967041015625,0.0,0.0,0.0,0.61328125,-0.11328125,9.46484375
937,404000000,imu2_frame,-0.0042724609375,-0.02801513671875,0.0760498046875,0.9967041015625,-0.00390625,0.0,0.0,0.61328125,-0.11328125,9.46484375
937,424000000,imu2_frame,-0.0042724609375,-0.02801513671875,0.0760498046875,0.9967041015625,-0.00390625,0.0,0.0,0.61328125,-0.11328125,9.46484375
937,444000000,imu2_frame,-0.0042724609375,-0.02801513671875,0.0760498046875,0.9967041015625,-0.00390625,0.0,0.0,0.61328125,-0.078125,9.421875
937,464000000,imu2_frame,-0.0042724609375,-0.02801513671875,0.0760498046875,0.9967041015625,-0.00390625,0.0,0.0,0.61328125,-0.078125,9.421875
937,484000000,imu2_frame,-0.0042724609375,-0.02801513671875,0.0760498046875,0.9967041015625,0.0,0.0,0.0,0.61328125,-0.078125,9.421875
937,504000000,imu2_frame,-0.0042724609375,-0.02801513671875,0.0760498046875,0.9967041015625,0.0,0.0,0.0,0.61328125,-0.078125,9.46484375
937,524000000,imu2_frame,-0.0042724609375,-0.02801513671875,0.0760498046875,0.9967041015625,0.0,0.0,0.0,0.61328125,-0.078125,9.46484375
937,544000000,imu2_frame,-0.0042724609375,-0.02801513671875,0.0760498046875,0.9967041015625,0.0,0.0,0.0,0.61328125,-0.078125,9.421875
937,564000000,imu2_frame,-0.0042724609375,-0.02801513671875,0.0760498046875,0.9967041015625,-0.001953125,0.0,-0.001953125,0.61328125,-0.078125,9.421875
937,584000000,imu2_frame,-0.0042724609375,-0.02801513671875,0.0760498046875,0.9967041015625,-0.001953125,0.0,-0.001953125,0.61328125,-0.078125,9.46484375
937,604000000,imu2_frame,-0.0042724609375,-0.02801513671875,0.0760498046875,0.9967041015625,-0.001953125,0.0,-0.001953125,0.61328125,-0.078125,9.46484375
937,624000000,imu2_frame,-0.0042724609375,-0.02801513671875,0.0760498046875,0.9967041015625,-0.001953125,0.0,-0.001953125,0.61328125,-0.078125,9.46484375
937,644000000,imu2_frame,-0.0042724609375,-0.02801513671875,0.0760498046875,0.9967041015625,0.0,0.0,0.0,0.61328125,-0.078125,9.46484375
937,664000000,imu2_frame,-0.0042724609375,-0.02801513671875,0.0760498046875,0.9967041015625,0.0,0.0,0.0,0.61328125,-0.11328125,9.46484375
937,684000000,imu2_frame,-0.0042724609375,-0.02801513671875,0.0760498046875,0.9967041015625,0.0,0.0,0.0,0.61328125,-0.078125,9.421875
937,704000000,imu2_frame,-0.0042724609375,-0.02801513671875,0.0760498046875,0.9967041015625,0.0,0.0,0.0,0.61328125,-0.078125,9.46484375
937,724000000,imu2_frame,-0.0042724609375,-0.02801513671875,0.0760498046875,0.9967041015625,-0.00390625,0.0,-0.001953125,0.61328125,-0.078125,9.46484375
937,744000000,imu2_frame,-0.0042724609375,-0.02801513671875,0.0760498046875,0.9967041015625,0.0,0.0,-0.001953125,0.61328125,-0.078125,9.46484375
937,764000000,imu2_frame,-0.0042724609375,-0.02801513671875,0.0760498046875,0.9967041015625,0.0,0.0,-0.001953125,0.61328125,-0.078125,9.46484375
937,784000000,imu2_frame,-0.0042724609375,-0.02801513671875,0.0760498046875,0.9967041015625,0.0,0.0,-0.001953125,0.61328125,-0.078125,9.46484375
937,804000000,imu2_frame,-0.0042724609375,-0.02801513671875,0.0760498046875,0.9967041015625,-0.001953125,0.0,0.0,0.61328125,-0.078125,9.46484375
937,824000000,imu2_frame,-0.0042724609375,-0.02801513671875,0.0760498046875,0.9967041015625,-0.001953125,0.0,0.0,0.61328125,-0.078125,9.46484375
937,844000000,imu2_frame,-0.0042724609375,-0.02801513671875,0.0760498046875,0.9967041015625,-0.001953125,0.0,0.0,0.61328125,-0.078125,9.46484375
937,864000000,imu2_frame,-0.0042724609375,-0.02801513671875,0.0760498046875,0.9967041015625,-0.001953125,0.0,0.0,0.61328125,-0.11328125,9.421875
937,884000000,imu2_frame,-0.0042724609375,-0.02801513671875,0.0760498046875,0.9967041015625,0.001953125,0.0,0.0,0.61328125,-0.11328125,9.421875
937,904000000,imu2_frame,-0.0042724609375,-0.02801513671875,0.0760498046875,0.9967041015625,0.001953125,0.0,0.0,0.61328125,-0.11328125,9.46484375
937,924000000,imu2_frame,-0.0042724609375,-0.02801513671875,0.0760498046875,0.9967041015625,0.001953125,0.0,0.0,0.61328125,-0.078125,9.46484375
937,944000000,imu2_frame,-0.0042724609375,-0.02801513671875,0.0760498046875,0.9967041015625,0.001953125,0.0,0.0,0.61328125,-0.11328125,9.46484375
937,964000000,imu2_frame,-0.0042724609375,-0.02801513671875,0.0760498046875,0.9967041015625,0.00390625,0.0,0.0,0.61328125,-0.11328125,9.46484375
937,984000000,imu2_frame,-0.0042724609375,-0.02801513671875,0.0760498046875,0.9967041015625,0.00390625,0.0,0.0,0.61328125,-0.078125,9.46484375
938,4000000,imu2_frame,-0.0042724609375,-0.02801513671875,0.0760498046875,0.9967041015625,0.00390625,0.0,0.0,0.57421875,-0.078125,9.4609375
938,24000000,imu2_frame,-0.0042724609375,-0.02801513671875,0.0760498046875,0.9967041015625,0.00390625,0.0,0.0,0.61328125,-0.11328125,9.421875
938,44000000,imu2_frame,-0.0042724609375,-0.02801513671875,0.0760498046875,0.9967041015625,0.0,0.0,0.0,0.61328125,-0.11328125,9.421875
938,64000000,imu2_frame,-0.0042724609375,-0.02801513671875,0.0760498046875,0.9967041015625,0.0,0.0,0.0,0.61328125,-0.11328125,9.421875
938,84000000,imu2_frame,-0.0042724609375,-0.02801513671875,0.0760498046875,0.9967041015625,0.0,0.0,0.0,0.61328125,-0.11328125,9.46484375
938,104000000,imu2_frame,-0.0042724609375,-0.02801513671875,0.0760498046875,0.9967041015625,0.0,0.0,0.0,0.61328125,-0.078125,9.46484375
938,124000000,imu2_frame,-0.0042724609375,-0.02801513671875,0.0760498046875,0.9967041015625,0.0,0.0,-0.001953125,0.61328125,-0.078125,9.46484375
938,144000000,imu2_frame,-0.0042724609375,-0.02801513671875,0.0760498046875,0.9967041015625,0.0,0.0,-0.001953125,0.61328125,-0.078125,9.46484375
938,164000000,imu2_frame,-0.0042724609375,-0.02801513671875,0.0760498046875,0.9967041015625,0.0,0.0,-0.001953125,0.61328125,-0.11328125,9.46484375
938,184000000,imu2_frame,-0.0042724609375,-0.02801513671875,0.0760498046875,0.9967041015625,0.0,0.0,-0.001953125,0.61328125,-0.11328125,9.46484375
938,204000000,imu2_frame,-0.0042724609375,-0.02801513671875,0.0760498046875,0.9967041015625,0.0,0.0,0.0,0.61328125,-0.11328125,9.46484375
938,224000000,imu2_frame,-0.0042724609375,-0.02801513671875,0.0760498046875,0.9967041015625,0.0,0.0,0.0,0.61328125,-0.11328125,9.46484375
938,244000000,imu2_frame,-0.0042724609375,-0.02801513671875,0.0760498046875,0.9967041015625,0.0,0.0,0.0,0.61328125,-0.11328125,9.46484375
938,264000000,imu2_frame,-0.0042724609375,-0.02801513671875,0.0760498046875,0.9967041015625,0.0,0.0,0.0,0.61328125,-0.078125,9.46484375
938,284000000,imu2_frame,-0.0042724609375,-0.02801513671875,0.0760498046875,0.9967041015625,0.0,-0.001953125,-0.0078125,0.61328125,-0.078125,9.46484375
938,304000000,imu2_frame,-0.0042724609375,-0.02801513671875,0.0760498046875,0.9967041015625,0.0,-0.001953125,-0.0078125,0.61328125,-0.11328125,9.421875
938,324000000,imu2_frame,-0.0042724609375,-0.02801513671875,0.0760498046875,0.9967041015625,0.0,-0.001953125,-0.0078125,0.61328125,-0.078125,9.46484375
938,344000000,imu2_frame,-0.0042724609375,-0.02801513671875,0.0760498046875,0.9967041015625,0.0,-0.001953125,-0.0078125,0.61328125,-0.078125,9.46484375
938,364000000,imu2_frame,-0.0042724609375,-0.02801513671875,0.0760498046875,0.9967041015625,-0.001953125,0.001953125,0.0,0.61328125,-0.078125,9.46484375
938,384000000,imu2_frame,-0.0042724609375,-0.02801513671875,0.0760498046875,0.9967041015625,-0.001953125,0.001953125,0.0,0.65234375,-0.11328125,9.46484375
938,404000000,imu2_frame,-0.0042724609375,-0.02801513671875,0.0760498046875,0.9967041015625,-0.001953125,0.001953125,0.0,0.65234375,-0.3046875,9.4609375
938,424000000,imu2_frame,-0.0042724609375,-0.02801513671875,0.0760498046875,0.9967041015625,-0.001953125,0.001953125,0.0,0.84375,-0.61328125,9.46484375
938,444000000,imu2_frame,-0.0042724609375,-0.02801513671875,0.0760498046875,0.9967041015625,-0.0234375,0.009765625,-0.056640625,0.84375,-0.61328125,9.46484375
938,464000000,imu2_frame,-0.0042724609375,-0.02801513671875,0.0760498046875,0.9967041015625,-0.0234375,0.009765625,-0.056640625,0.69140625,-0.23046875,9.421875
938,484000000,imu2_frame,-0.0042724609375,-0.02801513671875,0.0760498046875,0.9967041015625,-0.0234375,0.009765625,-0.056640625,0.7265625,-0.26953125,9.46484375
938,504000000,imu2_frame,-0.0042724609375,-0.02801513671875,0.0760498046875,0.9967041015625,-0.0234375,0.009765625,-0.056640625,0.4609375,0.0390625,9.46484375
938,524000000,imu2_frame,-0.0042724609375,-0.02801513671875,0.0760498046875,0.9967041015625,-0.001953125,0.00390625,-0.04296875,0.4609375,0.0390625,9.46484375
938,544000000,imu2_frame,-0.0042724609375,-0.02801513671875,0.0760498046875,0.9967041015625,-0.001953125,0.00390625,-0.04296875,0.53515625,-0.15234375,9.46484375
938,564000000,imu2_frame,-0.0042724609375,-0.02801513671875,0.0760498046875,0.9967041015625,-0.001953125,0.00390625,-0.04296875,0.61328125,-0.15234375,9.421875
938,584000000,imu2_frame,-0.0042724609375,-0.02801513671875,0.0760498046875,0.9967041015625,-0.001953125,0.00390625,-0.04296875,0.53515625,-0.26953125,9.46484375
938,604000000,imu2_frame,-0.0042724609375,-0.02801513671875,0.0760498046875,0.9967041015625,0.02734375,-0.029296875,-0.03125,0.53515625,-0.26953125,9.46484375
938,624000000,imu2_frame,-0.0042724609375,-0.02801513671875,0.0760498046875,0.9967041015625,0.02734375,-0.029296875,-0.03125,0.61328125,-0.078125,9.46484375
938,644000000,imu2_frame,-0.0042724609375,-0.02801513671875,0.0760498046875,0.9967041015625,0.02734375,-0.029296875,-0.03125,0.4609375,0.0,9.46484375
938,664000000,imu2_frame,-0.0042724609375,-0.02801513671875,0.0760498046875,0.9967041015625,0.02734375,-0.029296875,-0.03125,0.57421875,-0.26953125,9.4609375
938,684000000,imu2_frame,-0.0042724609375,-0.02801513671875,0.0760498046875,0.9967041015625,0.013671875,-0.00390625,-0.033203125,0.57421875,-0.26953125,9.4609375
938,704000000,imu2_frame,-0.0042724609375,-0.02801513671875,0.0760498046875,0.9967041015625,0.013671875,-0.00390625,-0.033203125,0.65234375,-0.26953125,9.421875
938,724000000,imu2_frame,-0.0042724609375,-0.02801513671875,0.0760498046875,0.9967041015625,0.013671875,-0.00390625,-0.033203125,0.53515625,0.11328125,9.50390625
938,744000000,imu2_frame,-0.0042724609375,-0.02801513671875,0.0760498046875,0.9967041015625,0.013671875,-0.00390625,-0.033203125,0.57421875,0.0390625,9.4609375
938,764000000,imu2_frame,-0.0042724609375,-0.02801513671875,0.0760498046875,0.9967041015625,0.03515625,-0.013671875,-0.060546875,0.57421875,0.0390625,9.4609375
938,784000000,imu2_frame,-0.0042724609375,-0.02801513671875,0.0760498046875,0.9967041015625,0.03515625,-0.013671875,-0.060546875,0.53515625,-0.11328125,9.421875
938,804000000,imu2_frame,-0.0042724609375,-0.02801513671875,0.0760498046875,0.9967041015625,0.03515625,-0.013671875,-0.060546875,0.65234375,-0.3828125,9.421875
938,824000000,imu2_frame,-0.0042724609375,-0.02801513671875,0.0760498046875,0.9967041015625,0.03515625,-0.013671875,-0.060546875,0.4609375,0.078125,9.46484375
938,844000000,imu2_frame,-0.0042724609375,-0.02801513671875,0.0760498046875,0.9967041015625,-0.04296875,0.0234375,-0.033203125,0.4609375,0.078125,9.46484375
938,864000000,imu2_frame,-0.0042724609375,-0.02801513671875,0.0760498046875,0.9967041015625,-0.04296875,0.0234375,-0.033203125,0.49609375,-0.11328125,9.50390625
938,884000000,imu2_frame,-0.0042724609375,-0.02801513671875,0.0760498046875,0.9967041015625,-0.04296875,0.0234375,-0.033203125,0.61328125,-0.11328125,9.46484375
938,904000000,imu2_frame,-0.0042724609375,-0.02801513671875,0.0760498046875,0.9967041015625,-0.04296875,0.0234375,-0.033203125,0.65234375,-0.3828125,9.421875
938,924000000,imu2_frame,-0.0042724609375,-0.02801513671875,0.0760498046875,0.9967041015625,-0.0078125,-0.0078125,0.037109375,0.65234375,-0.3828125,9.421875
938,944000000,imu2_frame,-0.0042724609375,-0.02801513671875,0.0760498046875,0.9967041015625,-0.0078125,-0.0078125,0.037109375,0.49609375,0.11328125,9.46484375
938,964000000,imu2_frame,-0.0042724609375,-0.02801513671875,0.0760498046875,0.9967041015625,-0.0078125,-0.0078125,0.037109375,0.61328125,-0.421875,9.4609375
938,984000000,imu2_frame,-0.0042724609375,-0.02801513671875,0.0760498046875,0.9967041015625,-0.0078125,-0.0078125,0.037109375,0.57421875,0.11328125,9.4609375
939,4000000,imu2_frame,-0.0042724609375,-0.02801513671875,0.0760498046875,0.9967041015625,-0.02734375,0.005859375,-0.080078125,0.57421875,0.11328125,9.4609375
939,24000000,imu2_frame,-0.0042724609375,-0.02801513671875,0.0760498046875,0.9967041015625,-0.02734375,0.005859375,-0.080078125,0.57421875,0.11328125,9.4609375
939,44000000,imu2_frame,-0.0042724609375,-0.02801513671875,0.0760498046875,0.9967041015625,-0.02734375,0.005859375,-0.080078125,0.57421875,-0.23046875,9.46484375
939,64000000,imu2_frame,-0.0042724609375,-0.02801513671875,0.0760498046875,0.9967041015625,-0.02734375,0.005859375,-0.080078125,0.7265625,-0.19140625,9.4609375
939,87000000,imu2_frame,-0.0042724609375,-0.02801513671875,0.0760498046875,0.9967041015625,-0.029296875,0.005859375,-0.07421875,0.7265625,-0.19140625,9.4609375
939,104000000,imu2_frame,-0.0042724609375,-0.02801513671875,0.0760498046875,0.9967041015625,-0.029296875,0.005859375,-0.07421875,0.57421875,-0.11328125,9.4609375
939,124000000,imu2_frame,-0.0042724609375,-0.02801513671875,0.0760498046875,0.9967041015625,-0.029296875,0.005859375,-0.07421875,0.57421875,-0.078125,9.4609375
939,144000000,imu2_frame,-0.0042724609375,-0.02801513671875,0.0760498046875,0.9967041015625,-0.029296875,0.005859375,-0.07421875,0.61328125,-0.23046875,9.5
939,164000000,imu2_frame,-0.0042724609375,-0.02801513671875,0.0760498046875,0.9967041015625,-0.029296875,0.013671875,-0.115234375,0.61328125,-0.23046875,9.5
939,184000000,imu2_frame,-0.0042724609375,-0.02801513671875,0.0760498046875,0.9967041015625,-0.029296875,0.013671875,-0.115234375,0.69140625,-0.11328125,9.42578125
939,204000000,imu2_frame,-0.0042724609375,-0.02801513671875,0.0760498046875,0.9967041015625,-0.029296875,0.013671875,-0.115234375,0.65234375,0.0,9.50390625
939,224000000,imu2_frame,-0.0042724609375,-0.02801513671875,0.0760498046875,0.9967041015625,-0.029296875,0.013671875,-0.115234375,0.57421875,0.0390625,9.4609375
939,244000000,imu2_frame,-0.0042724609375,-0.02801513671875,0.0760498046875,0.9967041015625,0.0078125,-0.0078125,-0.07421875,0.57421875,0.0390625,9.4609375
939,264000000,imu2_frame,-0.0042724609375,-0.02801513671875,0.0760498046875,0.9967041015625,0.0078125,-0.0078125,-0.07421875,0.69140625,0.0390625,9.5
939,284000000,imu2_frame,-0.0042724609375,-0.02801513671875,0.0760498046875,0.9967041015625,0.0078125,-0.0078125,-0.07421875,0.61328125,0.0390625,9.46484375
939,304000000,imu2_frame,-0.0042724609375,-0.02801513671875,0.0760498046875,0.9967041015625,0.0078125,-0.0078125,-0.07421875,0.7265625,-0.15234375,9.50390625
939,324000000,imu2_frame,-0.0042724609375,-0.02801513671875,0.0760498046875,0.9967041015625,-0.029296875,0.021484375,-0.044921875,0.7265625,-0.15234375,9.50390625
939,344000000,imu2_frame,-0.0042724609375,-0.02801513671875,0.0760498046875,0.9967041015625,-0.029296875,0.021484375,-0.044921875,0.69140625,-0.19140625,9.421875
939,364000000,imu2_frame,-0.0042724609375,-0.02801513671875,0.0760498046875,0.9967041015625,-0.029296875,0.021484375,-0.044921875,0.57421875,-0.078125,9.4609375
939,384000000,imu2_frame,-0.0042724609375,-0.02801513671875,0.0760498046875,0.9967041015625,-0.029296875,0.021484375,-0.044921875,0.65234375,-0.19140625,9.4609375
939,404000000,imu2_frame,-0.0042724609375,-0.02801513671875,0.0760498046875,0.9967041015625,0.0078125,0.005859375,-0.06640625,0.65234375,-0.19140625,9.4609375
939,424000000,imu2_frame,-0.0042724609375,-0.02801513671875,0.0760498046875,0.9967041015625,0.0078125,0.005859375,-0.06640625,0.61328125,-0.15234375,9.50390625
939,444000000,imu2_frame,-0.0042724609375,-0.02801513671875,0.0760498046875,0.9967041015625,0.0078125,0.005859375,-0.06640625,0.69140625,0.26953125,9.4609375
939,464000000,imu2_frame,-0.0042724609375,-0.02801513671875,0.0760498046875,0.9967041015625,0.0078125,0.005859375,-0.06640625,0.69140625,-0.3046875,9.421875
939,484000000,imu2_frame,-0.0042724609375,-0.02801513671875,0.0760498046875,0.9967041015625,-0.005859375,0.00390625,-0.0703125,0.69140625,-0.3046875,9.421875
939,504000000,imu2_frame,-0.0042724609375,-0.02801513671875,0.0760498046875,0.9967041015625,-0.005859375,0.00390625,-0.0703125,0.65234375,-0.15234375,9.46484375
939,524000000,imu2_frame,-0.0042724609375,-0.02801513671875,0.0760498046875,0.9967041015625,-0.005859375,0.00390625,-0.0703125,0.65234375,0.0,9.46484375
939,544000000,imu2_frame,-0.0042724609375,-0.02801513671875,0.0760498046875,0.9967041015625,-0.005859375,0.00390625,-0.0703125,0.65234375,0.0,9.46484375
939,564000000,imu2_frame,-0.0042724609375,-0.02801513671875,0.0760498046875,0.9967041015625,0.001953125,0.001953125,-0.05078125,0.65234375,0.0,9.46484375
939,584000000,imu2_frame,-0.0042724609375,-0.02801513671875,0.0760498046875,0.9967041015625,0.001953125,0.001953125,-0.05078125,0.65234375,-0.078125,9.46484375
939,604000000,imu2_frame,-0.0042724609375,-0.02801513671875,0.0760498046875,0.9967041015625,0.001953125,0.001953125,-0.05078125,0.65234375,-0.11328125,9.46484375
939,624000000,imu2_frame,-0.0042724609375,-0.02801513671875,0.0760498046875,0.9967041015625,0.001953125,0.001953125,-0.05078125,0.65234375,-0.078125,9.46484375
939,644000000,imu2_frame,-0.0042724609375,-0.02801513671875,0.0760498046875,0.9967041015625,0.0,0.001953125,0.0078125,0.65234375,-0.078125,9.46484375
939,664000000,imu2_frame,-0.0042724609375,-0.02801513671875,0.0760498046875,0.9967041015625,0.0,0.001953125,0.0078125,0.57421875,-0.23046875,9.46484375
939,684000000,imu2_frame,-0.0042724609375,-0.02801513671875,0.0760498046875,0.9967041015625,0.0,0.001953125,0.0078125,0.61328125,-0.61328125,9.46484375
939,704000000,imu2_frame,-0.0042724609375,-0.02801513671875,0.0760498046875,0.9967041015625,0.0,0.001953125,0.0078125,0.69140625,-0.57421875,9.46484375
939,724000000,imu2_frame,-0.0042724609375,-0.02801513671875,0.0760498046875,0.9967041015625,0.001953125,0.005859375,-0.17578125,0.69140625,-0.57421875,9.46484375
939,744000000,imu2_frame,-0.0042724609375,-0.02801513671875,0.0760498046875,0.9967041015625,0.001953125,0.005859375,-0.17578125,0.61328125,-0.34375,9.421875
939,764000000,imu2_frame,-0.0042724609375,-0.02801513671875,0.0760498046875,0.9967041015625,0.001953125,0.005859375,-0.17578125,0.57421875,-0.26953125,9.42578125
939,784000000,imu2_frame,-0.0042724609375,-0.02801513671875,0.0760498046875,0.9967041015625,0.001953125,0.005859375,-0.17578125,0.61328125,-0.15234375,9.50390625
939,804000000,imu2_frame,-0.0042724609375,-0.02801513671875,0.0760498046875,0.9967041015625,0.0,0.01953125,-0.1015625,0.61328125,-0.15234375,9.50390625
939,824000000,imu2_frame,-0.0042724609375,-0.02801513671875,0.0760498046875,0.9967041015625,0.0,0.01953125,-0.1015625,0.53515625,-0.421875,9.42578125
939,844000000,imu2_frame,-0.0042724609375,-0.02801513671875,0.0760498046875,0.9967041015625,0.0,0.01953125,-0.1015625,0.57421875,-0.19140625,9.46484375
939,864000000,imu2_frame,-0.0042724609375,-0.02801513671875,0.0760498046875,0.9967041015625,0.0,0.01953125,-0.1015625,0.57421875,-0.078125,9.42578125
939,884000000,imu2_frame,-0.0042724609375,-0.02801513671875,0.0760498046875,0.9967041015625,0.037109375,-0.046875,-0.0859375,0.57421875,-0.078125,9.42578125
939,904000000,imu2_frame,-0.0042724609375,-0.02801513671875,0.0760498046875,0.9967041015625,0.037109375,-0.046875,-0.0859375,0.53515625,0.078125,9.421875
939,924000000,imu2_frame,-0.0042724609375,-0.02801513671875,0.0760498046875,0.9967041015625,0.037109375,-0.046875,-0.0859375,0.65234375,0.0390625,9.50390625
939,944000000,imu2_frame,-0.0042724609375,-0.02801513671875,0.0760498046875,0.9967041015625,0.037109375,-0.046875,-0.0859375,0.61328125,-0.23046875,9.42578125
939,964000000,imu2_frame,-0.0042724609375,-0.02801513671875,0.0760498046875,0.9967041015625,-0.02734375,-0.0390625,-0.017578125,0.61328125,-0.23046875,9.42578125
939,984000000,imu2_frame,-0.0042724609375,-0.02801513671875,0.0760498046875,0.9967041015625,-0.02734375,-0.0390625,-0.017578125,0.53515625,0.49609375,9.46484375
940,4000000,imu2_frame,-0.0042724609375,-0.02801513671875,0.0760498046875,0.9967041015625,-0.02734375,-0.0390625,-0.017578125,0.65234375,-0.11328125,9.46484375
940,24000000,imu2_frame,-0.0042724609375,-0.02801513671875,0.0760498046875,0.9967041015625,-0.02734375,-0.0390625,-0.017578125,0.53515625,0.0,9.46484375
940,44000000,imu2_frame,-0.0042724609375,-0.02801513671875,0.0760498046875,0.9967041015625,-0.02734375,-0.0390625,-0.017578125,0.57421875,-0.078125,9.4609375
940,64000000,imu2_frame,-0.0042724609375,-0.02801513671875,0.0760498046875,0.9967041015625,-0.02734375,-0.0390625,-0.017578125,0.69140625,-0.15234375,9.4609375
940,84000000,imu2_frame,-0.0042724609375,-0.02801513671875,0.0760498046875,0.9967041015625,-0.02734375,-0.0390625,-0.017578125,0.69140625,-0.3046875,9.46484375
940,104000000,imu2_frame,-0.0042724609375,-0.02801513671875,0.0760498046875,0.9967041015625,-0.02734375,-0.0390625,-0.017578125,0.4609375,0.53515625,9.46484375
940,124000000,imu2_frame,-0.0042724609375,-0.02801513671875,0.0760498046875,0.9967041015625,-0.017578125,-0.025390625,-0.224609375,0.4609375,0.53515625,9.46484375
940,144000000,imu2_frame,-0.0042724609375,-0.02801513671875,0.0760498046875,0.9967041015625,-0.017578125,-0.025390625,-0.224609375,0.61328125,0.0,9.421875
940,164000000,imu2_frame,-0.0042724609375,-0.02801513671875,0.0760498046875,0.9967041015625,-0.017578125,-0.025390625,-0.224609375,0.49609375,-0.11328125,9.46484375
940,184000000,imu2_frame,-0.0042724609375,-0.02801513671875,0.0760498046875,0.9967041015625,-0.017578125,-0.025390625,-0.224609375,0.57421875,-0.3046875,9.46484375
940,204000000,imu2_frame,-0.0042724609375,-0.02801513671875,0.0760498046875,0.9967041015625,-0.001953125,0.02734375,-0.26953125,0.57421875,-0.3046875,9.46484375
940,224000000,imu2_frame,-0.0042724609375,-0.02801513671875,0.0760498046875,0.9967041015625,-0.001953125,0.02734375,-0.26953125,0.4609375,0.3046875,9.4609375
940,244000000,imu2_frame,-0.0042724609375,-0.02801513671875,0.0760498046875,0.9967041015625,-0.001953125,0.02734375,-0.26953125,0.53515625,-0.53515625,9.50390625
940,264000000,imu2_frame,-0.0042724609375,-0.02801513671875,0.0760498046875,0.9967041015625,-0.001953125,0.02734375,-0.26953125,0.69140625,-0.34375,9.4609375
940,284000000,imu2_frame,-0.0042724609375,-0.02801513671875,0.0760498046875,0.9967041015625,-0.05859375,0.052734375,-0.212890625,0.69140625,-0.34375,9.4609375
940,304000000,imu2_frame,-0.0042724609375,-0.02801513671875,0.0760498046875,0.9967041015625,-0.05859375,0.052734375,-0.212890625,0.61328125,-0.26953125,9.46484375
940,324000000,imu2_frame,-0.0042724609375,-0.02801513671875,0.0760498046875,0.9967041015625,-0.05859375,0.052734375,-0.212890625,0.53515625,-0.078125,9.421875
940,344000000,imu2_frame,-0.0042724609375,-0.02801513671875,0.0760498046875,0.9967041015625,-0.05859375,0.052734375,-0.212890625,0.65234375,-0.19140625,9.4609375
940,364000000,imu2_frame,-0.0042724609375,-0.02801513671875,0.0760498046875,0.9967041015625,0.017578125,0.0,-0.11328125,0.65234375,-0.19140625,9.4609375
940,384000000,imu2_frame,-0.0042724609375,-0.02801513671875,0.0760498046875,0.9967041015625,0.017578125,0.0,-0.11328125,0.61328125,-0.0390625,9.421875
940,404000000,imu2_frame,-0.0042724609375,-0.02801513671875,0.0760498046875,0.9967041015625,0.017578125,0.0,-0.11328125,0.49609375,0.3828125,9.50390625
940,424000000,imu2_frame,-0.0042724609375,-0.02801513671875,0.0760498046875,0.9967041015625,0.017578125,0.0,-0.11328125,0.7265625,0.11328125,9.46484375
940,444000000,imu2_frame,-0.0042724609375,-0.02801513671875,0.0760498046875,0.9967041015625,0.02734375,0.013671875,-0.1953125,0.7265625,0.11328125,9.46484375
940,464000000,imu2_frame,-0.0042724609375,-0.02801513671875,0.0760498046875,0.9967041015625,0.02734375,0.013671875,-0.1953125,0.49609375,0.23046875,9.4609375
940,484000000,imu2_frame,-0.0042724609375,-0.02801513671875,0.0760498046875,0.9967041015625,0.02734375,0.013671875,-0.1953125,0.61328125,0.15234375,9.46484375
940,504000000,imu2_frame,-0.0042724609375,-0.02801513671875,0.0760498046875,0.9967041015625,0.02734375,0.013671875,-0.1953125,0.65234375,0.19140625,9.4609375
940,524000000,imu2_frame,-0.0042724609375,-0.02801513671875,0.0760498046875,0.9967041015625,-0.01953125,0.005859375,-0.056640625,0.65234375,0.19140625,9.4609375
940,544000000,imu2_frame,-0.0042724609375,-0.02801513671875,0.0760498046875,0.9967041015625,-0.01953125,0.005859375,-0.056640625,0.61328125,0.0390625,9.46484375
940,564000000,imu2_frame,-0.0042724609375,-0.02801513671875,0.0760498046875,0.9967041015625,-0.01953125,0.005859375,-0.056640625,0.61328125,-0.15234375,9.46484375
940,584000000,imu2_frame,-0.0042724609375,-0.02801513671875,0.0760498046875,0.9967041015625,-0.01953125,0.005859375,-0.056640625,0.65234375,-0.19140625,9.4609375
940,604000000,imu2_frame,-0.0042724609375,-0.02801513671875,0.0760498046875,0.9967041015625,-0.00390625,0.017578125,-0.134765625,0.65234375,-0.19140625,9.4609375
940,624000000,imu2_frame,-0.0042724609375,-0.02801513671875,0.0760498046875,0.9967041015625,-0.00390625,0.017578125,-0.134765625,0.53515625,-0.15234375,9.46484375
940,644000000,imu2_frame,-0.0042724609375,-0.02801513671875,0.0760498046875,0.9967041015625,-0.00390625,0.017578125,-0.134765625,0.53515625,-0.0390625,9.46484375
940,664000000,imu2_frame,-0.0042724609375,-0.02801513671875,0.0760498046875,0.9967041015625,-0.00390625,0.017578125,-0.134765625,0.61328125,-0.34375,9.46484375
940,684000000,imu2_frame,-0.0042724609375,-0.02801513671875,0.0760498046875,0.9967041015625,0.0,0.0,-0.1484375,0.61328125,-0.34375,9.46484375
940,704000000,imu2_frame,-0.0042724609375,-0.02801513671875,0.0760498046875,0.9967041015625,0.0,0.0,-0.1484375,0.7265625,-0.23046875,9.4609375
940,724000000,imu2_frame,-0.0042724609375,-0.02801513671875,0.0760498046875,0.9967041015625,0.0,0.0,-0.1484375,0.65234375,-0.26953125,9.46484375
940,744000000,imu2_frame,-0.0042724609375,-0.02801513671875,0.0760498046875,0.9967041015625,0.0,0.0,-0.1484375,0.61328125,-0.19140625,9.4609375
940,764000000,imu2_frame,-0.0042724609375,-0.02801513671875,0.0760498046875,0.9967041015625,-0.013671875,0.009765625,-0.1015625,0.61328125,-0.19140625,9.4609375
940,784000000,imu2_frame,-0.0042724609375,-0.02801513671875,0.0760498046875,0.9967041015625,0.015625,-0.033203125,-0.18359375,0.61328125,-0.19140625,9.4609375
940,804000000,imu2_frame,-0.0042724609375,-0.02801513671875,0.0760498046875,0.9967041015625,0.015625,-0.033203125,-0.18359375,0.61328125,-0.11328125,9.421875
940,824000000,imu2_frame,-0.0042724609375,-0.02801513671875,0.0760498046875,0.9967041015625,0.015625,-0.033203125,-0.18359375,0.65234375,-0.15234375,9.46484375
940,844000000,imu2_frame,-0.0042724609375,-0.02801513671875,0.0760498046875,0.9967041015625,0.00390625,-0.013671875,-0.068359375,0.65234375,-0.15234375,9.46484375
940,864000000,imu2_frame,-0.0042724609375,-0.02801513671875,0.0760498046875,0.9967041015625,0.00390625,-0.013671875,-0.068359375,0.61328125,0.11328125,9.50390625
940,884000000,imu2_frame,-0.0042724609375,-0.02801513671875,0.0760498046875,0.9967041015625,0.00390625,-0.013671875,-0.068359375,0.7265625,-0.11328125,9.46484375
940,904000000,imu2_frame,-0.0042724609375,-0.02801513671875,0.0760498046875,0.9967041015625,0.00390625,-0.013671875,-0.068359375,0.65234375,-0.421875,9.42578125
940,924000000,imu2_frame,-0.0042724609375,-0.02801513671875,0.0760498046875,0.9967041015625,-0.005859375,-0.01171875,-0.0390625,0.65234375,-0.421875,9.42578125
940,944000000,imu2_frame,-0.0042724609375,-0.02801513671875,0.0760498046875,0.9967041015625,-0.005859375,-0.01171875,-0.0390625,0.49609375,0.23046875,9.5
940,964000000,imu2_frame,-0.0042724609375,-0.02801513671875,0.0760498046875,0.9967041015625,-0.005859375,-0.01171875,-0.0390625,0.69140625,-0.19140625,9.421875
940,984000000,imu2_frame,-0.0042724609375,-0.02801513671875,0.0760498046875,0.9967041015625,-0.005859375,-0.01171875,-0.0390625,0.53515625,-0.15234375,9.421875
941,4000000,imu2_frame,-0.0042724609375,-0.02801513671875,0.0760498046875,0.9967041015625,0.01953125,-0.00390625,-0.140625,0.53515625,-0.15234375,9.421875
941,24000000,imu2_frame,-0.0042724609375,-0.02801513671875,0.0760498046875,0.9967041015625,0.01953125,-0.00390625,-0.140625,0.57421875,-0.26953125,9.4609375
941,44000000,imu2_frame,-0.0042724609375,-0.02801513671875,0.0760498046875,0.9967041015625,0.01953125,-0.00390625,-0.140625,0.57421875,0.19140625,9.50390625
941,64000000,imu2_frame,-0.0042724609375,-0.02801513671875,0.0760498046875,0.9967041015625,0.01953125,-0.00390625,-0.140625,0.65234375,-0.4609375,9.46484375
941,88000000,imu2_frame,-0.0042724609375,-0.02801513671875,0.0760498046875,0.9967041015625,0.01171875,0.03515625,-0.171875,0.65234375,-0.4609375,9.46484375
941,104000000,imu2_frame,-0.0042724609375,-0.02801513671875,0.0760498046875,0.9967041015625,0.01171875,0.03515625,-0.171875,0.53515625,-0.078125,9.421875
941,124000000,imu2_frame,-0.0042724609375,-0.02801513671875,0.0760498046875,0.9967041015625,0.01171875,0.03515625,-0.171875,0.65234375,-0.23046875,9.42578125
941,144000000,imu2_frame,-0.0042724609375,-0.02801513671875,0.0760498046875,0.9967041015625,0.01171875,0.03515625,-0.171875,0.57421875,-0.3046875,9.421875
941,164000000,imu2_frame,-0.0042724609375,-0.02801513671875,0.0760498046875,0.9967041015625,-0.015625,0.03515625,-0.2265625,0.57421875,-0.3046875,9.421875
941,184000000,imu2_frame,-0.0042724609375,-0.02801513671875,0.0760498046875,0.9967041015625,-0.015625,0.03515625,-0.2265625,0.53515625,-0.078125,9.421875
941,204000000,imu2_frame,-0.0042724609375,-0.02801513671875,0.0760498046875,0.9967041015625,-0.015625,0.03515625,-0.2265625,0.57421875,0.078125,9.4609375
941,224000000,imu2_frame,-0.0042724609375,-0.02801513671875,0.0760498046875,0.9967041015625,-0.015625,0.03515625,-0.2265625,0.53515625,-0.078125,9.46484375
941,244000000,imu2_frame,-0.0042724609375,-0.02801513671875,0.0760498046875,0.9967041015625,0.01171875,0.0,-0.091796875,0.53515625,-0.078125,9.46484375
941,264000000,imu2_frame,-0.0042724609375,-0.02801513671875,0.0760498046875,0.9967041015625,0.01171875,0.0,-0.091796875,0.57421875,0.0,9.42578125
941,284000000,imu2_frame,-0.0042724609375,-0.02801513671875,0.0760498046875,0.9967041015625,0.01171875,0.0,-0.091796875,0.65234375,-0.421875,9.5
941,304000000,imu2_frame,-0.0042724609375,-0.02801513671875,0.0760498046875,0.9967041015625,0.01171875,0.0,-0.091796875,0.49609375,0.26953125,9.46484375
941,324000000,imu2_frame,-0.0042724609375,-0.02801513671875,0.0760498046875,0.9967041015625,0.021484375,0.005859375,-0.001953125,0.49609375,0.26953125,9.46484375
941,344000000,imu2_frame,-0.0042724609375,-0.02801513671875,0.0760498046875,0.9967041015625,0.021484375,0.005859375,-0.001953125,0.57421875,0.0,9.42578125
941,364000000,imu2_frame,-0.0042724609375,-0.02801513671875,0.0760498046875,0.9967041015625,0.021484375,0.005859375,-0.001953125,0.53515625,0.15234375,9.46484375
941,384000000,imu2_frame,-0.0042724609375,-0.02801513671875,0.0760498046875,0.9967041015625,0.021484375,0.005859375,-0.001953125,0.61328125,-0.3046875,9.5
941,404000000,imu2_frame,-0.0042724609375,-0.02801513671875,0.0760498046875,0.9967041015625,-0.0234375,0.017578125,-0.0703125,0.61328125,-0.3046875,9.5
941,424000000,imu2_frame,-0.0042724609375,-0.02801513671875,0.0760498046875,0.9967041015625,-0.0234375,0.017578125,-0.0703125,0.65234375,-0.19140625,9.4609375
941,444000000,imu2_frame,-0.0042724609375,-0.02801513671875,0.0760498046875,0.9967041015625,-0.0234375,0.017578125,-0.0703125,0.65234375,-0.26953125,9.46484375
941,464000000,imu2_frame,-0.0042724609375,-0.02801513671875,0.0760498046875,0.9967041015625,-0.0234375,0.017578125,-0.0703125,0.421875,0.19140625,9.50390625
941,484000000,imu2_frame,-0.0042724609375,-0.02801513671875,0.0760498046875,0.9967041015625,-0.017578125,0.00390625,-0.07421875,0.421875,0.19140625,9.50390625
941,504000000,imu2_frame,-0.0042724609375,-0.02801513671875,0.0760498046875,0.9967041015625,-0.017578125,0.00390625,-0.07421875,0.49609375,0.19140625,9.4609375
941,524000000,imu2_frame,-0.0042724609375,-0.02801513671875,0.0760498046875,0.9967041015625,-0.017578125,0.00390625,-0.07421875,0.69140625,-0.57421875,9.46484375
941,544000000,imu2_frame,-0.0042724609375,-0.02801513671875,0.0760498046875,0.9967041015625,-0.017578125,0.00390625,-0.07421875,0.4609375,0.0,9.46484375
941,564000000,imu2_frame,-0.0042724609375,-0.02801513671875,0.0760498046875,0.9967041015625,0.0234375,-0.02734375,-0.06640625,0.4609375,0.0,9.46484375
941,584000000,imu2_frame,-0.0042724609375,-0.02801513671875,0.0760498046875,0.9967041015625,0.0234375,-0.02734375,-0.06640625,0.421875,0.23046875,9.46484375
941,604000000,imu2_frame,-0.0042724609375,-0.02801513671875,0.0760498046875,0.9967041015625,0.0234375,-0.02734375,-0.06640625,0.65234375,-0.4609375,9.46484375
941,624000000,imu2_frame,-0.0042724609375,-0.02801513671875,0.0760498046875,0.9967041015625,0.0234375,-0.02734375,-0.06640625,0.3828125,0.3828125,9.46484375
941,644000000,imu2_frame,-0.0042724609375,-0.02801513671875,0.0760498046875,0.9967041015625,-0.017578125,0.0078125,-0.060546875,0.3828125,0.3828125,9.46484375
941,664000000,imu2_frame,-0.0042724609375,-0.02801513671875,0.0760498046875,0.9967041015625,-0.017578125,0.0078125,-0.060546875,0.57421875,-0.11328125,9.42578125
941,684000000,imu2_frame,-0.0042724609375,-0.02801513671875,0.0760498046875,0.9967041015625,-0.017578125,0.0078125,-0.060546875,0.49609375,0.078125,9.46484375
941,704000000,imu2_frame,-0.0042724609375,-0.02801513671875,0.0760498046875,0.9967041015625,-0.017578125,0.0078125,-0.060546875,0.65234375,-0.53515625,9.46484375
941,724000000,imu2_frame,-0.0042724609375,-0.02801513671875,0.0760498046875,0.9967041015625,-0.001953125,0.0,0.048828125,0.65234375,-0.53515625,9.46484375
941,744000000,imu2_frame,-0.0042724609375,-0.02801513671875,0.0760498046875,0.9967041015625,-0.001953125,0.0,0.048828125,0.57421875,0.11328125,9.4609375
941,764000000,imu2_frame,-0.0042724609375,-0.02801513671875,0.0760498046875,0.9967041015625,-0.001953125,0.0,0.048828125,0.53515625,-0.19140625,9.4609375
941,784000000,imu2_frame,-0.0042724609375,-0.02801513671875,0.0760498046875,0.9967041015625,-0.001953125,0.0,0.048828125,0.7265625,-0.49609375,9.421875
941,804000000,imu2_frame,-0.0042724609375,-0.02801513671875,0.0760498046875,0.9967041015625,0.01171875,0.005859375,-0.06640625,0.7265625,-0.49609375,9.421875
941,824000000,imu2_frame,-0.0042724609375,-0.02801513671875,0.0760498046875,0.9967041015625,0.01171875,0.005859375,-0.06640625,0.765625,-0.53515625,9.42578125
941,844000000,imu2_frame,-0.0042724609375,-0.02801513671875,0.0760498046875,0.9967041015625,0.01171875,0.005859375,-0.06640625,0.3828125,0.19140625,9.4609375
941,864000000,imu2_frame,-0.0042724609375,-0.02801513671875,0.0760498046875,0.9967041015625,0.01171875,0.005859375,-0.06640625,0.61328125,0.0,9.50390625
941,884000000,imu2_frame,-0.0042724609375,-0.02801513671875,0.0760498046875,0.9967041015625,-0.0078125,-0.0078125,-0.03515625,0.61328125,0.0,9.50390625
941,904000000,imu2_frame,-0.0042724609375,-0.02801513671875,0.0760498046875,0.9967041015625,-0.0078125,-0.0078125,-0.03515625,0.61328125,0.0,9.421875
941,924000000,imu2_frame,-0.0042724609375,-0.02801513671875,0.0760498046875,0.9967041015625,-0.0078125,-0.0078125,-0.03515625,0.57421875,0.11328125,9.42578125
941,944000000,imu2_frame,-0.0042724609375,-0.02801513671875,0.0760498046875,0.9967041015625,-0.0078125,-0.0078125,-0.03515625,0.69140625,-0.34375,9.4609375
941,964000000,imu2_frame,-0.0042724609375,-0.02801513671875,0.0760498046875,0.9967041015625,-0.01953125,0.025390625,-0.13671875,0.69140625,-0.34375,9.4609375
941,984000000,imu2_frame,-0.0042724609375,-0.02801513671875,0.0760498046875,0.9967041015625,-0.01953125,0.025390625,-0.13671875,0.65234375,-0.26953125,9.421875
942,4000000,imu2_frame,-0.0042724609375,-0.02801513671875,0.0760498046875,0.9967041015625,-0.01953125,0.025390625,-0.13671875,0.69140625,-0.421875,9.50390625
942,24000000,imu2_frame,-0.0042724609375,-0.02801513671875,0.0760498046875,0.9967041015625,-0.01953125,0.025390625,-0.13671875,0.3828125,0.23046875,9.42578125
942,44000000,imu2_frame,-0.0042724609375,-0.02801513671875,0.0760498046875,0.9967041015625,0.013671875,0.0078125,-0.109375,0.3828125,0.23046875,9.42578125
942,64000000,imu2_frame,-0.0042724609375,-0.02801513671875,0.0760498046875,0.9967041015625,0.013671875,0.0078125,-0.109375,0.4609375,0.3828125,9.46484375
942,84000000,imu2_frame,-0.0042724609375,-0.02801513671875,0.0760498046875,0.9967041015625,0.013671875,0.0078125,-0.109375,0.49609375,-0.078125,9.46484375
942,104000000,imu2_frame,-0.0042724609375,-0.02801513671875,0.0760498046875,0.9967041015625,0.013671875,0.0078125,-0.109375,0.57421875,-0.26953125,9.5
942,124000000,imu2_frame,-0.0042724609375,-0.02801513671875,0.0760498046875,0.9967041015625,0.041015625,-0.01953125,-0.068359375,0.57421875,-0.26953125,9.5
942,144000000,imu2_frame,-0.0042724609375,-0.02801513671875,0.0760498046875,0.9967041015625,0.041015625,-0.01953125,-0.068359375,0.61328125,0.0,9.421875
942,164000000,imu2_frame,-0.0042724609375,-0.02801513671875,0.0760498046875,0.9967041015625,0.041015625,-0.01953125,-0.068359375,0.53515625,0.0390625,9.46484375
942,184000000,imu2_frame,-0.0042724609375,-0.02801513671875,0.0760498046875,0.9967041015625,0.041015625,-0.01953125,-0.068359375,0.61328125,-0.0390625,9.46484375
942,204000000,imu2_frame,-0.0042724609375,-0.02801513671875,0.0760498046875,0.9967041015625,0.001953125,0.01953125,-0.046875,0.61328125,-0.0390625,9.46484375
942,224000000,imu2_frame,-0.0042724609375,-0.02801513671875,0.0760498046875,0.9967041015625,0.001953125,0.01953125,-0.046875,0.53515625,-0.26953125,9.46484375
942,244000000,imu2_frame,-0.0042724609375,-0.02801513671875,0.0760498046875,0.9967041015625,0.001953125,0.01953125,-0.046875,0.53515625,0.0390625,9.46484375
942,264000000,imu2_frame,-0.0042724609375,-0.02801513671875,0.0760498046875,0.9967041015625,0.001953125,0.01953125,-0.046875,0.65234375,-0.421875,9.42578125
942,284000000,imu2_frame,-0.0042724609375,-0.02801513671875,0.0760498046875,0.9967041015625,-0.041015625,0.017578125,-0.05078125,0.65234375,-0.421875,9.42578125
942,304000000,imu2_frame,-0.0042724609375,-0.02801513671875,0.0760498046875,0.9967041015625,-0.041015625,0.017578125,-0.05078125,0.53515625,0.15234375,9.46484375
942,324000000,imu2_frame,-0.0042724609375,-0.02801513671875,0.0760498046875,0.9967041015625,-0.041015625,0.017578125,-0.05078125,0.53515625,0.23046875,9.42578125
942,344000000,imu2_frame,-0.0042724609375,-0.02801513671875,0.0760498046875,0.9967041015625,-0.041015625,0.017578125,-0.05078125,0.61328125,-0.15234375,9.46484375
942,364000000,imu2_frame,-0.0042724609375,-0.02801513671875,0.0760498046875,0.9967041015625,-0.00390625,0.033203125,-0.1171875,0.61328125,-0.15234375,9.46484375
942,384000000,imu2_frame,-0.0042724609375,-0.02801513671875,0.0760498046875,0.9967041015625,-0.00390625,0.033203125,-0.1171875,0.57421875,-0.26953125,9.4609375
942,404000000,imu2_frame,-0.0042724609375,-0.02801513671875,0.0760498046875,0.9967041015625,-0.00390625,0.033203125,-0.1171875,0.53515625,0.15234375,9.46484375
942,424000000,imu2_frame,-0.0042724609375,-0.02801513671875,0.0760498046875,0.9967041015625,-0.00390625,0.033203125,-0.1171875,0.61328125,-0.421875,9.4609375
942,444000000,imu2_frame,-0.0042724609375,-0.02801513671875,0.0760498046875,0.9967041015625,-0.005859375,-0.015625,-0.025390625,0.61328125,-0.421875,9.4609375
942,464000000,imu2_frame,-0.0042724609375,-0.02801513671875,0.0760498046875,0.9967041015625,-0.005859375,-0.015625,-0.025390625,0.57421875,-0.23046875,9.421875
942,484000000,imu2_frame,-0.0042724609375,-0.02801513671875,0.0760498046875,0.9967041015625,-0.005859375,-0.015625,-0.025390625,0.49609375,-0.11328125,9.46484375
942,504000000,imu2_frame,-0.0042724609375,-0.02801513671875,0.0760498046875,0.9967041015625,-0.005859375,-0.015625,-0.025390625,0.57421875,-0.19140625,9.46484375
942,524000000,imu2_frame,-0.0042724609375,-0.02801513671875,0.0760498046875,0.9967041015625,0.041015625,0.013671875,0.109375,0.57421875,-0.19140625,9.46484375
942,544000000,imu2_frame,-0.0042724609375,-0.02801513671875,0.0760498046875,0.9967041015625,0.041015625,0.013671875,0.109375,0.7265625,0.078125,9.421875
942,564000000,imu2_frame,-0.0042724609375,-0.02801513671875,0.0760498046875,0.9967041015625,0.041015625,0.013671875,0.109375,0.57421875,-0.15234375,9.42578125
942,584000000,imu2_frame,-0.0042724609375,-0.02801513671875,0.0760498046875,0.9967041015625,0.041015625,0.013671875,0.109375,0.4609375,0.3046875,9.5
942,604000000,imu2_frame,-0.0042724609375,-0.02801513671875,0.0760498046875,0.9967041015625,-0.025390625,0.005859375,-0.0390625,0.4609375,0.3046875,9.5
942,624000000,imu2_frame,-0.0042724609375,-0.02801513671875,0.0760498046875,0.9967041015625,-0.025390625,0.005859375,-0.0390625,0.4609375,-0.15234375,9.50390625
942,644000000,imu2_frame,-0.0042724609375,-0.02801513671875,0.0760498046875,0.9967041015625,-0.025390625,0.005859375,-0.0390625,0.65234375,-0.4609375,9.46484375
942,664000000,imu2_frame,-0.0042724609375,-0.02801513671875,0.0760498046875,0.9967041015625,-0.025390625,0.005859375,-0.0390625,0.3828125,0.15234375,9.421875
942,684000000,imu2_frame,-0.0042724609375,-0.02801513671875,0.0760498046875,0.9967041015625,0.005859375,0.0,-0.0625,0.3828125,0.15234375,9.421875
942,704000000,imu2_frame,-0.0042724609375,-0.02801513671875,0.0760498046875,0.9967041015625,0.005859375,0.0,-0.0625,0.65234375,0.078125,9.46484375
942,724000000,imu2_frame,-0.0042724609375,-0.02801513671875,0.0760498046875,0.9967041015625,0.005859375,0.0,-0.0625,0.57421875,-0.0390625,9.4609375
942,744000000,imu2_frame,-0.0042724609375,-0.02801513671875,0.0760498046875,0.9967041015625,0.005859375,0.0,-0.0625,0.65234375,0.0390625,9.46484375
942,764000000,imu2_frame,-0.0042724609375,-0.02801513671875,0.0760498046875,0.9967041015625,-0.01171875,-0.0078125,-0.115234375,0.65234375,0.0390625,9.46484375
942,784000000,imu2_frame,-0.0042724609375,-0.02801513671875,0.0760498046875,0.9967041015625,-0.01171875,-0.0078125,-0.115234375,0.49609375,-0.15234375,9.50390625
942,804000000,imu2_frame,-0.0042724609375,-0.02801513671875,0.0760498046875,0.9967041015625,-0.01171875,-0.0078125,-0.115234375,0.53515625,-0.26953125,9.46484375
942,824000000,imu2_frame,-0.0042724609375,-0.02801513671875,0.0760498046875,0.9967041015625,-0.01171875,-0.0078125,-0.115234375,0.53515625,0.0,9.46484375
942,844000000,imu2_frame,-0.0042724609375,-0.02801513671875,0.0760498046875,0.9967041015625,-0.013671875,0.0078125,-0.0390625,0.53515625,0.0,9.46484375
942,864000000,imu2_frame,-0.0042724609375,-0.02801513671875,0.0760498046875,0.9967041015625,-0.013671875,0.0078125,-0.0390625,0.57421875,0.078125,9.4609375
942,884000000,imu2_frame,-0.0042724609375,-0.02801513671875,0.0760498046875,0.9967041015625,-0.013671875,0.0078125,-0.0390625,0.65234375,-0.19140625,9.5
942,904000000,imu2_frame,-0.0042724609375,-0.02801513671875,0.0760498046875,0.9967041015625,-0.013671875,0.0078125,-0.0390625,0.57421875,0.0390625,9.4609375
942,924000000,imu2_frame,-0.0042724609375,-0.02801513671875,0.0760498046875,0.9967041015625,-0.01171875,-0.00390625,-0.05859375,0.57421875,0.0390625,9.4609375
942,944000000,imu2_frame,-0.0042724609375,-0.02801513671875,0.0760498046875,0.9967041015625,-0.01171875,-0.00390625,-0.05859375,0.49609375,0.15234375,9.421875
942,964000000,imu2_frame,-0.0042724609375,-0.02801513671875,0.0760498046875,0.9967041015625,-0.01171875,-0.00390625,-0.05859375,0.7265625,-0.3046875,9.42578125
942,984000000,imu2_frame,-0.0042724609375,-0.02801513671875,0.0760498046875,0.9967041015625,-0.01171875,-0.00390625,-0.05859375,0.53515625,0.15234375,9.46484375
943,4000000,imu2_frame,-0.0042724609375,-0.02801513671875,0.0760498046875,0.9967041015625,0.005859375,-0.01171875,-0.11328125,0.53515625,0.15234375,9.46484375
943,24000000,imu2_frame,-0.0042724609375,-0.02801513671875,0.0760498046875,0.9967041015625,0.005859375,-0.01171875,-0.11328125,0.57421875,0.0,9.42578125
943,44000000,imu2_frame,-0.0042724609375,-0.02801513671875,0.0760498046875,0.9967041015625,0.005859375,-0.01171875,-0.11328125,0.57421875,-0.0390625,9.4609375
943,64000000,imu2_frame,-0.0042724609375,-0.02801513671875,0.0760498046875,0.9967041015625,0.005859375,-0.01171875,-0.11328125,0.7265625,-0.23046875,9.4609375
943,84000000,imu2_frame,-0.0042724609375,-0.02801513671875,0.0760498046875,0.9967041015625,-0.009765625,0.009765625,-0.08203125,0.7265625,-0.23046875,9.4609375
943,104000000,imu2_frame,-0.0042724609375,-0.02801513671875,0.0760498046875,0.9967041015625,-0.009765625,0.009765625,-0.08203125,0.53515625,0.078125,9.46484375
943,124000000,imu2_frame,-0.0042724609375,-0.02801513671875,0.0760498046875,0.9967041015625,-0.009765625,0.009765625,-0.08203125,0.65234375,-0.34375,9.46484375
943,144000000,imu2_frame,-0.0042724609375,-0.02801513671875,0.0760498046875,0.9967041015625,-0.009765625,0.009765625,-0.08203125,0.421875,0.11328125,9.4609375
943,164000000,imu2_frame,-0.0042724609375,-0.02801513671875,0.0760498046875,0.9967041015625,-0.009765625,0.009765625,-0.08203125,0.61328125,-0.26953125,9.421875
943,184000000,imu2_frame,-0.0042724609375,-0.02801513671875,0.0760498046875,0.9967041015625,-0.009765625,0.009765625,-0.08203125,0.53515625,0.0,9.46484375
943,204000000,imu2_frame,-0.0042724609375,-0.02801513671875,0.0760498046875,0.9967041015625,-0.009765625,0.009765625,-0.08203125,0.57421875,-0.19140625,9.46484375
943,224000000,imu2_frame,-0.0042724609375,-0.02801513671875,0.0760498046875,0.9967041015625,-0.009765625,0.009765625,-0.08203125,0.57421875,-0.078125,9.42578125
943,244000000,imu2_frame,-0.0042724609375,-0.02801513671875,0.0760498046875,0.9967041015625,-0.0078125,-0.01171875,-0.060546875,0.57421875,-0.078125,9.42578125
943,264000000,imu2_frame,-0.0042724609375,-0.02801513671875,0.0760498046875,0.9967041015625,-0.0078125,-0.01171875,-0.060546875,0.49609375,-0.26953125,9.46484375
943,284000000,imu2_frame,-0.0042724609375,-0.02801513671875,0.0760498046875,0.9967041015625,-0.0078125,-0.01171875,-0.060546875,0.4609375,0.078125,9.46484375
943,304000000,imu2_frame,-0.0042724609375,-0.02801513671875,0.0760498046875,0.9967041015625,-0.0078125,-0.01171875,-0.060546875,0.69140625,-0.23046875,9.46484375
943,324000000,imu2_frame,-0.0042724609375,-0.02801513671875,0.0760498046875,0.9967041015625,0.013671875,0.0,-0.1171875,0.69140625,-0.23046875,9.46484375
943,344000000,imu2_frame,-0.0042724609375,-0.02801513671875,0.0760498046875,0.9967041015625,0.013671875,0.0,-0.1171875,0.3828125,0.15234375,9.46484375
943,364000000,imu2_frame,-0.0042724609375,-0.02801513671875,0.0760498046875,0.9967041015625,0.013671875,0.0,-0.1171875,0.49609375,-0.15234375,9.46484375
943,384000000,imu2_frame,-0.0042724609375,-0.02801513671875,0.0760498046875,0.9967041015625,0.013671875,0.0,-0.1171875,0.61328125,-0.3046875,9.4609375
943,404000000,imu2_frame,-0.0042724609375,-0.02801513671875,0.0760498046875,0.9967041015625,-0.0078125,-0.001953125,-0.056640625,0.61328125,-0.3046875,9.4609375
943,424000000,imu2_frame,-0.0042724609375,-0.02801513671875,0.0760498046875,0.9967041015625,-0.0078125,-0.001953125,-0.056640625,0.57421875,-0.15234375,9.5
943,444000000,imu2_frame,-0.0042724609375,-0.02801513671875,0.0760498046875,0.9967041015625,-0.0078125,-0.001953125,-0.056640625,0.57421875,-0.19140625,9.421875
943,464000000,imu2_frame,-0.0042724609375,-0.02801513671875,0.0760498046875,0.9967041015625,-0.0078125,-0.001953125,-0.056640625,0.61328125,-0.23046875,9.4609375
943,484000000,imu2_frame,-0.0042724609375,-0.02801513671875,0.0760498046875,0.9967041015625,0.0,0.0078125,-0.078125,0.61328125,-0.23046875,9.4609375
943,504000000,imu2_frame,-0.0042724609375,-0.02801513671875,0.0760498046875,0.9967041015625,0.0,0.0078125,-0.078125,0.57421875,0.11328125,9.4609375
943,524000000,imu2_frame,-0.0042724609375,-0.02801513671875,0.0760498046875,0.9967041015625,0.0,0.0078125,-0.078125,0.69140625,-0.11328125,9.4609375
943,544000000,imu2_frame,-0.0042724609375,-0.02801513671875,0.0760498046875,0.9967041015625,0.0,0.0078125,-0.078125,0.53515625,0.0,9.46484375
943,564000000,imu2_frame,-0.0042724609375,-0.02801513671875,0.0760498046875,0.9967041015625,0.005859375,0.025390625,-0.130859375,0.53515625,0.0,9.46484375
943,584000000,imu2_frame,-0.0042724609375,-0.02801513671875,0.0760498046875,0.9967041015625,0.005859375,0.025390625,-0.130859375,0.65234375,-0.23046875,9.42578125
943,604000000,imu2_frame,-0.0042724609375,-0.02801513671875,0.0760498046875,0.9967041015625,0.005859375,0.025390625,-0.130859375,0.57421875,-0.078125,9.4609375
943,624000000,imu2_frame,-0.0042724609375,-0.02801513671875,0.0760498046875,0.9967041015625,0.005859375,0.025390625,-0.130859375,0.49609375,-0.15234375,9.46484375
943,644000000,imu2_frame,-0.0042724609375,-0.02801513671875,0.0760498046875,0.9967041015625,0.03515625,-0.0234375,-0.1015625,0.49609375,-0.15234375,9.46484375
943,664000000,imu2_frame,-0.0042724609375,-0.02801513671875,0.0760498046875,0.9967041015625,0.03515625,-0.0234375,-0.1015625,0.53515625,-0.15234375,9.46484375
943,684000000,imu2_frame,-0.0042724609375,-0.02801513671875,0.0760498046875,0.9967041015625,0.03515625,-0.0234375,-0.1015625,0.57421875,-0.15234375,9.5
943,704000000,imu2_frame,-0.0042724609375,-0.02801513671875,0.0760498046875,0.9967041015625,0.03515625,-0.0234375,-0.1015625,0.7265625,-0.19140625,9.42578125
943,724000000,imu2_frame,-0.0042724609375,-0.02801513671875,0.0760498046875,0.9967041015625,0.021484375,-0.01171875,-0.11328125,0.7265625,-0.19140625,9.42578125
943,744000000,imu2_frame,-0.0042724609375,-0.02801513671875,0.0760498046875,0.9967041015625,0.021484375,-0.01171875,-0.11328125,0.65234375,-0.0390625,9.421875
943,764000000,imu2_frame,-0.0042724609375,-0.02801513671875,0.0760498046875,0.9967041015625,0.021484375,-0.01171875,-0.11328125,0.53515625,0.11328125,9.46484375
943,784000000,imu2_frame,-0.0042724609375,-0.02801513671875,0.0760498046875,0.9967041015625,0.021484375,-0.01171875,-0.11328125,0.57421875,-0.15234375,9.42578125
943,804000000,imu2_frame,-0.0042724609375,-0.02801513671875,0.0760498046875,0.9967041015625,-0.015625,-0.00390625,-0.0390625,0.57421875,-0.15234375,9.42578125
943,824000000,imu2_frame,-0.0042724609375,-0.02801513671875,0.0760498046875,0.9967041015625,-0.015625,-0.00390625,-0.0390625,0.65234375,-0.26953125,9.421875
943,844000000,imu2_frame,-0.0042724609375,-0.02801513671875,0.0760498046875,0.9967041015625,-0.015625,-0.00390625,-0.0390625,0.53515625,-0.0390625,9.46484375
943,864000000,imu2_frame,-0.0042724609375,-0.02801513671875,0.0760498046875,0.9967041015625,-0.015625,-0.00390625,-0.0390625,0.4609375,0.15234375,9.46484375
943,884000000,imu2_frame,-0.0042724609375,-0.02801513671875,0.0760498046875,0.9967041015625,0.0390625,-0.009765625,-0.015625,0.4609375,0.15234375,9.46484375
943,904000000,imu2_frame,-0.0042724609375,-0.02801513671875,0.0760498046875,0.9967041015625,0.0390625,-0.009765625,-0.015625,0.65234375,0.0390625,9.50390625
943,924000000,imu2_frame,-0.0042724609375,-0.02801513671875,0.0760498046875,0.9967041015625,0.0390625,-0.009765625,-0.015625,0.65234375,-0.23046875,9.4609375
943,944000000,imu2_frame,-0.0042724609375,-0.02801513671875,0.0760498046875,0.9967041015625,0.0390625,-0.009765625,-0.015625,0.53515625,0.11328125,9.421875
943,964000000,imu2_frame,-0.0042724609375,-0.02801513671875,0.0760498046875,0.9967041015625,0.00390625,-0.0078125,-0.021484375,0.53515625,0.11328125,9.421875
943,984000000,imu2_frame,-0.0042724609375,-0.02801513671875,0.0760498046875,0.9967041015625,0.00390625,-0.0078125,-0.021484375,0.61328125,-0.15234375,9.421875
944,4000000,imu2_frame,-0.0042724609375,-0.02801513671875,0.0760498046875,0.9967041015625,0.00390625,-0.0078125,-0.021484375,0.69140625,-0.34375,9.42578125
944,24000000,imu2_frame,-0.0042724609375,-0.02801513671875,0.0760498046875,0.9967041015625,0.00390625,-0.0078125,-0.021484375,0.4609375,-0.23046875,9.4609375
944,44000000,imu2_frame,-0.0042724609375,-0.02801513671875,0.0760498046875,0.9967041015625,-0.037109375,0.015625,-0.09375,0.4609375,-0.23046875,9.4609375
944,64000000,imu2_frame,-0.0042724609375,-0.02801513671875,0.0760498046875,0.9967041015625,-0.037109375,0.015625,-0.09375,0.49609375,0.0,9.50390625
944,84000000,imu2_frame,-0.0042724609375,-0.02801513671875,0.0760498046875,0.9967041015625,-0.037109375,0.015625,-0.09375,0.53515625,-0.26953125,9.46484375
944,104000000,imu2_frame,-0.0042724609375,-0.02801513671875,0.0760498046875,0.9967041015625,-0.037109375,0.015625,-0.09375,0.4609375,0.078125,9.46484375
944,124000000,imu2_frame,-0.0042724609375,-0.02801513671875,0.0760498046875,0.9967041015625,0.0078125,-0.00390625,-0.208984375,0.4609375,0.078125,9.46484375
944,144000000,imu2_frame,-0.0042724609375,-0.02801513671875,0.0760498046875,0.9967041015625,0.0078125,-0.00390625,-0.208984375,0.61328125,-0.421875,9.4609375
944,164000000,imu2_frame,-0.0042724609375,-0.02801513671875,0.0760498046875,0.9967041015625,0.0078125,-0.00390625,-0.208984375,0.69140625,-0.15234375,9.4609375
944,184000000,imu2_frame,-0.0042724609375,-0.02801513671875,0.0760498046875,0.9967041015625,0.0078125,-0.00390625,-0.208984375,0.4609375,0.0390625,9.46484375
944,204000000,imu2_frame,-0.0042724609375,-0.02801513671875,0.0760498046875,0.9967041015625,0.0078125,-0.00390625,-0.208984375,0.61328125,-0.34375,9.46484375
944,224000000,imu2_frame,-0.0042724609375,-0.02801513671875,0.0760498046875,0.9967041015625,0.0078125,-0.00390625,-0.208984375,0.61328125,-0.26953125,9.50390625
944,244000000,imu2_frame,-0.0042724609375,-0.02801513671875,0.0760498046875,0.9967041015625,0.0078125,-0.00390625,-0.208984375,0.49609375,0.15234375,9.46484375
944,264000000,imu2_frame,-0.0042724609375,-0.02801513671875,0.0760498046875,0.9967041015625,0.0078125,-0.00390625,-0.208984375,0.61328125,-0.3046875,9.42578125
944,284000000,imu2_frame,-0.0042724609375,-0.02801513671875,0.0760498046875,0.9967041015625,0.0078125,-0.00390625,-0.208984375,0.53515625,0.078125,9.421875
944,304000000,imu2_frame,-0.0042724609375,-0.02801513671875,0.0760498046875,0.9967041015625,0.0078125,-0.00390625,-0.208984375,0.57421875,0.0,9.42578125
944,324000000,imu2_frame,-0.0042724609375,-0.02801513671875,0.0760498046875,0.9967041015625,0.0078125,-0.00390625,-0.208984375,0.57421875,0.0,9.42578125
944,344000000,imu2_frame,-0.0042724609375,-0.02801513671875,0.0760498046875,0.9967041015625,0.0078125,-0.00390625,-0.208984375,0.421875,-0.078125,9.4609375
944,364000000,imu2_frame,-0.0042724609375,-0.02801513671875,0.0760498046875,0.9967041015625,0.017578125,0.013671875,-0.154296875,0.421875,-0.078125,9.4609375
944,384000000,imu2_frame,-0.0042724609375,-0.02801513671875,0.0760498046875,0.9967041015625,0.017578125,0.013671875,-0.154296875,0.57421875,-0.19140625,9.46484375
944,404000000,imu2_frame,-0.0042724609375,-0.02801513671875,0.0760498046875,0.9967041015625,0.017578125,0.013671875,-0.154296875,0.57421875,0.23046875,9.46484375
944,424000000,imu2_frame,-0.0042724609375,-0.02801513671875,0.0760498046875,0.9967041015625,0.017578125,0.013671875,-0.154296875,0.53515625,-0.26953125,9.421875
944,444000000,imu2_frame,-0.0042724609375,-0.02801513671875,0.0760498046875,0.9967041015625,0.015625,-0.001953125,-0.025390625,0.53515625,-0.26953125,9.421875
944,464000000,imu2_frame,-0.0042724609375,-0.02801513671875,0.0760498046875,0.9967041015625,0.015625,-0.001953125,-0.025390625,0.57421875,-0.3828125,9.4609375
944,484000000,imu2_frame,-0.0042724609375,-0.02801513671875,0.0760498046875,0.9967041015625,0.015625,-0.001953125,-0.025390625,0.3828125,0.078125,9.46484375
944,504000000,imu2_frame,-0.0042724609375,-0.02801513671875,0.0760498046875,0.9967041015625,0.015625,-0.001953125,-0.025390625,0.69140625,-0.078125,9.42578125
944,524000000,imu2_frame,-0.0042724609375,-0.02801513671875,0.0760498046875,0.9967041015625,0.015625,-0.001953125,-0.025390625,0.61328125,-0.0390625,9.46484375
944,544000000,imu2_frame,-0.0042724609375,-0.02801513671875,0.0760498046875,0.9967041015625,0.015625,-0.001953125,-0.025390625,0.69140625,-0.53515625,9.42578125
944,564000000,imu2_frame,-0.0042724609375,-0.02801513671875,0.0760498046875,0.9967041015625,0.015625,-0.001953125,-0.025390625,0.69140625,-0.15234375,9.4609375
944,584000000,imu2_frame,-0.0042724609375,-0.02801513671875,0.0760498046875,0.9967041015625,0.015625,-0.001953125,-0.025390625,0.65234375,-0.19140625,9.5
944,604000000,imu2_frame,-0.0042724609375,-0.02801513671875,0.0760498046875,0.9967041015625,0.015625,-0.001953125,-0.025390625,0.49609375,-0.0390625,9.46484375
944,624000000,imu2_frame,-0.0042724609375,-0.02801513671875,0.0760498046875,0.9967041015625,0.015625,-0.001953125,-0.025390625,0.53515625,0.0390625,9.421875
944,644000000,imu2_frame,-0.0042724609375,-0.02801513671875,0.0760498046875,0.9967041015625,0.015625,-0.001953125,-0.025390625,0.53515625,0.11328125,9.421875
944,664000000,imu2_frame,-0.0042724609375,-0.02801513671875,0.0760498046875,0.9967041015625,0.015625,-0.001953125,-0.025390625,0.61328125,-0.3828125,9.50390625
944,684000000,imu2_frame,-0.0042724609375,-0.02801513671875,0.0760498046875,0.9967041015625,0.015625,-0.001953125,-0.025390625,0.4609375,-0.11328125,9.421875
944,704000000,imu2_frame,-0.0042724609375,-0.02801513671875,0.0760498046875,0.9967041015625,0.015625,-0.001953125,-0.025390625,0.4609375,-0.11328125,9.421875
944,724000000,imu2_frame,-0.0042724609375,-0.02801513671875,0.0760498046875,0.9967041015625,0.015625,-0.001953125,-0.025390625,0.61328125,-0.23046875,9.5
944,744000000,imu2_frame,-0.0042724609375,-0.02801513671875,0.0760498046875,0.9967041015625,0.015625,-0.001953125,-0.025390625,0.53515625,-0.11328125,9.46484375
944,764000000,imu2_frame,-0.0042724609375,-0.02801513671875,0.0760498046875,0.9967041015625,0.015625,-0.001953125,-0.025390625,0.53515625,-0.11328125,9.46484375
944,784000000,imu2_frame,-0.0042724609375,-0.02801513671875,0.0760498046875,0.9967041015625,0.015625,-0.001953125,-0.025390625,0.53515625,-0.11328125,9.46484375
944,804000000,imu2_frame,-0.0042724609375,-0.02801513671875,0.0760498046875,0.9967041015625,0.015625,-0.001953125,-0.025390625,0.57421875,0.0390625,9.4609375
944,824000000,imu2_frame,-0.0042724609375,-0.02801513671875,0.0760498046875,0.9967041015625,0.015625,-0.001953125,-0.025390625,0.4609375,0.0390625,9.46484375
944,844000000,imu2_frame,-0.0042724609375,-0.02801513671875,0.0760498046875,0.9967041015625,0.015625,-0.001953125,-0.025390625,0.4609375,0.0390625,9.46484375
944,864000000,imu2_frame,-0.0042724609375,-0.02801513671875,0.0760498046875,0.9967041015625,0.015625,-0.001953125,-0.025390625,0.4609375,0.0390625,9.46484375
944,884000000,imu2_frame,-0.0042724609375,-0.02801513671875,0.0760498046875,0.9967041015625,0.015625,-0.001953125,-0.025390625,0.53515625,-0.078125,9.46484375
944,904000000,imu2_frame,-0.0042724609375,-0.02801513671875,0.0760498046875,0.9967041015625,0.015625,-0.001953125,-0.025390625,0.61328125,-0.15234375,9.46484375
944,924000000,imu2_frame,-0.0042724609375,-0.02801513671875,0.0760498046875,0.9967041015625,0.015625,-0.001953125,-0.025390625,0.61328125,-0.15234375,9.46484375
944,944000000,imu2_frame,-0.0042724609375,-0.02801513671875,0.0760498046875,0.9967041015625,0.015625,-0.001953125,-0.025390625,0.61328125,-0.0390625,9.46484375
944,964000000,imu2_frame,-0.0042724609375,-0.02801513671875,0.0760498046875,0.9967041015625,0.015625,-0.001953125,-0.025390625,0.65234375,-0.23046875,9.4609375
944,984000000,imu2_frame,-0.0042724609375,-0.02801513671875,0.0760498046875,0.9967041015625,0.015625,-0.001953125,-0.025390625,0.65234375,-0.23046875,9.4609375
945,4000000,imu2_frame,-0.0042724609375,-0.02801513671875,0.0760498046875,0.9967041015625,0.015625,-0.001953125,-0.025390625,0.65234375,-0.23046875,9.4609375
945,24000000,imu2_frame,-0.0042724609375,-0.02801513671875,0.0760498046875,0.9967041015625,0.015625,-0.001953125,-0.025390625,0.61328125,0.15234375,9.46484375
945,44000000,imu2_frame,-0.0042724609375,-0.02801513671875,0.0760498046875,0.9967041015625,0.015625,-0.001953125,-0.025390625,0.65234375,-0.26953125,9.46484375
945,64000000,imu2_frame,-0.0042724609375,-0.02801513671875,0.0760498046875,0.9967041015625,0.015625,-0.001953125,-0.025390625,0.61328125,-0.078125,9.50390625
945,84000000,imu2_frame,-0.0042724609375,-0.02801513671875,0.0760498046875,0.9967041015625,0.015625,-0.001953125,-0.025390625,0.7265625,-0.3046875,9.42578125
945,104000000,imu2_frame,-0.0042724609375,-0.02801513671875,0.0760498046875,0.9967041015625,0.015625,-0.001953125,-0.025390625,0.57421875,0.0,9.4609375
945,124000000,imu2_frame,-0.0042724609375,-0.02801513671875,0.0760498046875,0.9967041015625,0.015625,-0.001953125,-0.025390625,0.65234375,-0.26953125,9.421875
945,144000000,imu2_frame,-0.0042724609375,-0.02801513671875,0.0760498046875,0.9967041015625,0.015625,-0.001953125,-0.025390625,0.61328125,-0.15234375,9.46484375
945,164000000,imu2_frame,-0.0042724609375,-0.02801513671875,0.0760498046875,0.9967041015625,0.015625,-0.001953125,-0.025390625,0.65234375,-0.078125,9.50390625
945,184000000,imu2_frame,-0.0042724609375,-0.02801513671875,0.0760498046875,0.9967041015625,0.015625,-0.001953125,-0.025390625,0.61328125,-0.11328125,9.46484375
945,204000000,imu2_frame,-0.0042724609375,-0.02801513671875,0.0760498046875,0.9967041015625,0.015625,-0.001953125,-0.025390625,0.69140625,-0.11328125,9.4609375
945,224000000,imu2_frame,-0.0042724609375,-0.02801513671875,0.0760498046875,0.9967041015625,0.015625,-0.001953125,-0.025390625,0.69140625,-0.26953125,9.4609375
945,244000000,imu2_frame,-0.0042724609375,-0.02801513671875,0.0760498046875,0.9967041015625,0.015625,-0.001953125,-0.025390625,0.57421875,-0.078125,9.42578125
945,264000000,imu2_frame,-0.0042724609375,-0.02801513671875,0.0760498046875,0.9967041015625,0.015625,-0.001953125,-0.025390625,0.65234375,-0.19140625,9.4609375
945,284000000,imu2_frame,-0.0042724609375,-0.02801513671875,0.0760498046875,0.9967041015625,0.015625,-0.001953125,-0.025390625,0.57421875,0.0,9.4609375
945,304000000,imu2_frame,-0.0042724609375,-0.02801513671875,0.0760498046875,0.9967041015625,0.015625,-0.001953125,-0.025390625,0.57421875,0.0,9.4609375
945,324000000,imu2_frame,-0.0042724609375,-0.02801513671875,0.0760498046875,0.9967041015625,0.015625,-0.001953125,-0.025390625,0.7265625,-0.19140625,9.4609375
945,344000000,imu2_frame,-0.0042724609375,-0.02801513671875,0.0760498046875,0.9967041015625,0.015625,-0.001953125,-0.025390625,0.53515625,-0.11328125,9.46484375
945,364000000,imu2_frame,-0.0042724609375,-0.02801513671875,0.0760498046875,0.9967041015625,0.015625,-0.001953125,-0.025390625,0.69140625,-0.26953125,9.4609375
945,384000000,imu2_frame,-0.0042724609375,-0.02801513671875,0.0760498046875,0.9967041015625,0.015625,-0.001953125,-0.025390625,0.421875,0.3046875,9.46484375
945,404000000,imu2_frame,-0.0042724609375,-0.02801513671875,0.0760498046875,0.9967041015625,0.015625,-0.001953125,-0.025390625,0.61328125,-0.11328125,9.50390625
945,424000000,imu2_frame,-0.0042724609375,-0.02801513671875,0.0760498046875,0.9967041015625,0.015625,-0.001953125,-0.025390625,0.61328125,-0.11328125,9.50390625
945,444000000,imu2_frame,-0.0042724609375,-0.02801513671875,0.0760498046875,0.9967041015625,0.015625,-0.001953125,-0.025390625,0.61328125,-0.11328125,9.50390625
945,464000000,imu2_frame,-0.0042724609375,-0.02801513671875,0.0760498046875,0.9967041015625,0.015625,-0.001953125,-0.025390625,0.4609375,0.19140625,9.42578125
945,484000000,imu2_frame,-0.0042724609375,-0.02801513671875,0.0760498046875,0.9967041015625,0.015625,-0.001953125,-0.025390625,0.69140625,-0.19140625,9.46484375
945,504000000,imu2_frame,-0.0042724609375,-0.02801513671875,0.0760498046875,0.9967041015625,0.015625,-0.001953125,-0.025390625,0.69140625,-0.19140625,9.46484375
945,524000000,imu2_frame,-0.0042724609375,-0.02801513671875,0.0760498046875,0.9967041015625,0.015625,-0.001953125,-0.025390625,0.69140625,-0.19140625,9.46484375
945,544000000,imu2_frame,-0.0042724609375,-0.02801513671875,0.0760498046875,0.9967041015625,0.015625,-0.001953125,-0.025390625,0.61328125,-0.23046875,9.42578125
945,564000000,imu2_frame,-0.0042724609375,-0.02801513671875,0.0760498046875,0.9967041015625,0.015625,-0.001953125,-0.025390625,0.53515625,0.078125,9.50390625
945,584000000,imu2_frame,-0.0042724609375,-0.02801513671875,0.0760498046875,0.9967041015625,0.015625,-0.001953125,-0.025390625,0.53515625,0.078125,9.50390625
945,604000000,imu2_frame,-0.0042724609375,-0.02801513671875,0.0760498046875,0.9967041015625,0.015625,-0.001953125,-0.025390625,0.53515625,0.078125,9.50390625
945,624000000,imu2_frame,-0.0042724609375,-0.02801513671875,0.0760498046875,0.9967041015625,0.015625,-0.001953125,-0.025390625,0.61328125,-0.11328125,9.46484375
945,644000000,imu2_frame,-0.0042724609375,-0.02801513671875,0.0760498046875,0.9967041015625,0.015625,-0.001953125,-0.025390625,0.61328125,-0.11328125,9.46484375
945,664000000,imu2_frame,-0.0042724609375,-0.02801513671875,0.0760498046875,0.9967041015625,0.015625,-0.001953125,-0.025390625,0.61328125,-0.11328125,9.46484375
945,684000000,imu2_frame,-0.0042724609375,-0.02801513671875,0.0760498046875,0.9967041015625,0.015625,-0.001953125,-0.025390625,0.61328125,-0.11328125,9.46484375
945,704000000,imu2_frame,-0.0042724609375,-0.02801513671875,0.0760498046875,0.9967041015625,0.015625,-0.001953125,-0.025390625,0.53515625,-0.078125,9.46484375
945,724000000,imu2_frame,-0.0042724609375,-0.02801513671875,0.0760498046875,0.9967041015625,0.015625,-0.001953125,-0.025390625,0.53515625,-0.078125,9.46484375
945,744000000,imu2_frame,-0.0042724609375,-0.02801513671875,0.0760498046875,0.9967041015625,0.015625,-0.001953125,-0.025390625,0.53515625,-0.078125,9.46484375
945,764000000,imu2_frame,-0.0042724609375,-0.02801513671875,0.0760498046875,0.9967041015625,0.015625,-0.001953125,-0.025390625,0.57421875,-0.0390625,9.42578125
945,784000000,imu2_frame,-0.0042724609375,-0.02801513671875,0.0760498046875,0.9967041015625,0.015625,-0.001953125,-0.025390625,0.57421875,-0.15234375,9.5
945,804000000,imu2_frame,-0.0042724609375,-0.02801513671875,0.0760498046875,0.9967041015625,0.015625,-0.001953125,-0.025390625,0.57421875,-0.15234375,9.5
945,824000000,imu2_frame,-0.0042724609375,-0.02801513671875,0.0760498046875,0.9967041015625,0.015625,-0.001953125,-0.025390625,0.57421875,-0.15234375,9.5
945,844000000,imu2_frame,-0.0042724609375,-0.02801513671875,0.0760498046875,0.9967041015625,0.015625,-0.001953125,-0.025390625,0.65234375,-0.3046875,9.4609375
945,864000000,imu2_frame,-0.0042724609375,-0.02801513671875,0.0760498046875,0.9967041015625,0.015625,-0.001953125,-0.025390625,0.57421875,-0.34375,9.42578125
945,884000000,imu2_frame,-0.0042724609375,-0.02801513671875,0.0760498046875,0.9967041015625,0.015625,-0.001953125,-0.025390625,0.57421875,-0.34375,9.42578125
945,904000000,imu2_frame,-0.0042724609375,-0.02801513671875,0.0760498046875,0.9967041015625,0.015625,-0.001953125,-0.025390625,0.57421875,-0.34375,9.42578125
945,924000000,imu2_frame,-0.0042724609375,-0.02801513671875,0.0760498046875,0.9967041015625,0.015625,-0.001953125,-0.025390625,0.57421875,-0.34375,9.42578125
945,944000000,imu2_frame,-0.0042724609375,-0.02801513671875,0.0760498046875,0.9967041015625,0.015625,-0.001953125,-0.025390625,0.61328125,-0.11328125,9.46484375
945,964000000,imu2_frame,-0.0042724609375,-0.02801513671875,0.0760498046875,0.9967041015625,0.015625,-0.001953125,-0.025390625,0.61328125,-0.11328125,9.46484375
945,984000000,imu2_frame,-0.0042724609375,-0.02801513671875,0.0760498046875,0.9967041015625,0.015625,-0.001953125,-0.025390625,0.61328125,-0.11328125,9.46484375
946,4000000,imu2_frame,-0.0042724609375,-0.02801513671875,0.0760498046875,0.9967041015625,0.015625,-0.001953125,-0.025390625,0.61328125,-0.3046875,9.4609375
946,24000000,imu2_frame,-0.0042724609375,-0.02801513671875,0.0760498046875,0.9967041015625,0.015625,-0.001953125,-0.025390625,0.61328125,-0.3046875,9.4609375
946,44000000,imu2_frame,-0.0042724609375,-0.02801513671875,0.0760498046875,0.9967041015625,0.015625,-0.001953125,-0.025390625,0.61328125,-0.3046875,9.4609375
946,64000000,imu2_frame,-0.0042724609375,-0.02801513671875,0.0760498046875,0.9967041015625,0.015625,-0.001953125,-0.025390625,0.61328125,-0.3046875,9.4609375
946,84000000,imu2_frame,-0.0042724609375,-0.02801513671875,0.0760498046875,0.9967041015625,0.015625,-0.001953125,-0.025390625,0.57421875,-0.34375,9.42578125
946,104000000,imu2_frame,-0.0042724609375,-0.02801513671875,0.0760498046875,0.9967041015625,0.015625,-0.001953125,-0.025390625,0.57421875,-0.34375,9.42578125
946,124000000,imu2_frame,-0.0042724609375,-0.02801513671875,0.0760498046875,0.9967041015625,0.015625,-0.001953125,-0.025390625,0.57421875,-0.34375,9.42578125
946,144000000,imu2_frame,-0.0042724609375,-0.02801513671875,0.0760498046875,0.9967041015625,0.015625,-0.001953125,-0.025390625,0.57421875,-0.34375,9.42578125
946,164000000,imu2_frame,-0.0042724609375,-0.02801513671875,0.0760498046875,0.9967041015625,0.015625,-0.001953125,-0.025390625,0.53515625,-0.078125,9.46484375
946,184000000,imu2_frame,-0.0042724609375,-0.02801513671875,0.0760498046875,0.9967041015625,0.015625,-0.001953125,-0.025390625,0.53515625,-0.078125,9.46484375
946,204000000,imu2_frame,-0.0042724609375,-0.02801513671875,0.0760498046875,0.9967041015625,0.015625,-0.001953125,-0.025390625,0.53515625,-0.078125,9.46484375
946,224000000,imu2_frame,-0.0042724609375,-0.02801513671875,0.0760498046875,0.9967041015625,0.015625,-0.001953125,-0.025390625,0.53515625,-0.078125,9.46484375
946,244000000,imu2_frame,-0.0042724609375,-0.02801513671875,0.0760498046875,0.9967041015625,0.015625,-0.001953125,-0.025390625,0.53515625,-0.078125,9.46484375
946,264000000,imu2_frame,-0.0042724609375,-0.02801513671875,0.0760498046875,0.9967041015625,0.015625,-0.001953125,-0.025390625,0.53515625,-0.078125,9.46484375
946,284000000,imu2_frame,-0.0042724609375,-0.02801513671875,0.0760498046875,0.9967041015625,0.015625,-0.001953125,-0.025390625,0.53515625,-0.078125,9.46484375
946,304000000,imu2_frame,-0.0042724609375,-0.02801513671875,0.0760498046875,0.9967041015625,0.015625,-0.001953125,-0.025390625,0.53515625,-0.078125,9.46484375
946,324000000,imu2_frame,-0.0042724609375,-0.02801513671875,0.0760498046875,0.9967041015625,0.015625,-0.001953125,-0.025390625,0.53515625,-0.078125,9.46484375
946,344000000,imu2_frame,-0.0042724609375,-0.02801513671875,0.0760498046875,0.9967041015625,0.015625,-0.001953125,-0.025390625,0.53515625,-0.078125,9.46484375
946,364000000,imu2_frame,-0.0042724609375,-0.02801513671875,0.0760498046875,0.9967041015625,0.015625,-0.001953125,-0.025390625,0.53515625,-0.078125,9.46484375
946,384000000,imu2_frame,-0.0042724609375,-0.02801513671875,0.0760498046875,0.9967041015625,0.015625,-0.001953125,-0.025390625,0.53515625,-0.078125,9.46484375
946,404000000,imu2_frame,-0.0042724609375,-0.02801513671875,0.0760498046875,0.9967041015625,0.015625,-0.001953125,-0.025390625,0.53515625,-0.078125,9.46484375
946,424000000,imu2_frame,-0.0042724609375,-0.02801513671875,0.0760498046875,0.9967041015625,0.015625,-0.001953125,-0.025390625,0.53515625,-0.078125,9.46484375
946,444000000,imu2_frame,-0.0042724609375,-0.02801513671875,0.0760498046875,0.9967041015625,0.015625,-0.001953125,-0.025390625,0.53515625,-0.078125,9.46484375
946,464000000,imu2_frame,-0.0042724609375,-0.02801513671875,0.0760498046875,0.9967041015625,0.015625,-0.001953125,-0.025390625,0.53515625,-0.078125,9.46484375
946,484000000,imu2_frame,-0.0042724609375,-0.02801513671875,0.0760498046875,0.9967041015625,0.015625,-0.001953125,-0.025390625,0.53515625,-0.078125,9.46484375
946,504000000,imu2_frame,-0.0042724609375,-0.02801513671875,0.0760498046875,0.9967041015625,0.015625,-0.001953125,-0.025390625,0.53515625,-0.078125,9.46484375
946,524000000,imu2_frame,-0.0042724609375,-0.02801513671875,0.0760498046875,0.9967041015625,0.015625,-0.001953125,-0.025390625,0.53515625,-0.078125,9.46484375
946,544000000,imu2_frame,-0.0042724609375,-0.02801513671875,0.0760498046875,0.9967041015625,0.015625,-0.001953125,-0.025390625,0.53515625,-0.078125,9.46484375
946,564000000,imu2_frame,-0.0042724609375,-0.02801513671875,0.0760498046875,0.9967041015625,0.015625,-0.001953125,-0.025390625,0.53515625,-0.078125,9.46484375
946,584000000,imu2_frame,-0.0042724609375,-0.02801513671875,0.0760498046875,0.9967041015625,0.015625,-0.001953125,-0.025390625,0.53515625,-0.078125,9.46484375
946,604000000,imu2_frame,-0.0042724609375,-0.02801513671875,0.0760498046875,0.9967041015625,0.015625,-0.001953125,-0.025390625,0.53515625,-0.078125,9.46484375
946,624000000,imu2_frame,-0.0042724609375,-0.02801513671875,0.0760498046875,0.9967041015625,0.015625,-0.001953125,-0.025390625,0.53515625,-0.078125,9.46484375
946,644000000,imu2_frame,-0.0042724609375,-0.02801513671875,0.0760498046875,0.9967041015625,0.015625,-0.001953125,-0.025390625,0.53515625,-0.078125,9.46484375
946,664000000,imu2_frame,-0.0042724609375,-0.02801513671875,0.0760498046875,0.9967041015625,0.015625,-0.001953125,-0.025390625,0.53515625,-0.078125,9.46484375
946,684000000,imu2_frame,-0.0042724609375,-0.02801513671875,0.0760498046875,0.9967041015625,0.015625,-0.001953125,-0.025390625,0.53515625,-0.078125,9.46484375
946,704000000,imu2_frame,-0.0042724609375,-0.02801513671875,0.0760498046875,0.9967041015625,0.015625,-0.001953125,-0.025390625,0.53515625,-0.078125,9.46484375
946,724000000,imu2_frame,-0.0042724609375,-0.02801513671875,0.0760498046875,0.9967041015625,0.015625,-0.001953125,-0.025390625,0.53515625,-0.078125,9.46484375
946,744000000,imu2_frame,-0.0042724609375,-0.02801513671875,0.0760498046875,0.9967041015625,0.015625,-0.001953125,-0.025390625,0.53515625,-0.078125,9.46484375
946,764000000,imu2_frame,-0.0042724609375,-0.02801513671875,0.0760498046875,0.9967041015625,0.015625,-0.001953125,-0.025390625,0.53515625,-0.078125,9.46484375
946,784000000,imu2_frame,-0.0042724609375,-0.02801513671875,0.0760498046875,0.9967041015625,0.015625,-0.001953125,-0.025390625,0.53515625,-0.078125,9.46484375
946,804000000,imu2_frame,-0.0042724609375,-0.02801513671875,0.0760498046875,0.9967041015625,0.015625,-0.001953125,-0.025390625,0.53515625,-0.078125,9.46484375
946,824000000,imu2_frame,-0.0042724609375,-0.02801513671875,0.0760498046875,0.9967041015625,0.015625,-0.001953125,-0.025390625,0.53515625,-0.078125,9.46484375
946,844000000,imu2_frame,-0.0042724609375,-0.02801513671875,0.0760498046875,0.9967041015625,0.015625,-0.001953125,-0.025390625,0.53515625,-0.078125,9.46484375
946,864000000,imu2_frame,-0.0042724609375,-0.02801513671875,0.0760498046875,0.9967041015625,0.015625,-0.001953125,-0.025390625,0.53515625,-0.078125,9.46484375
946,884000000,imu2_frame,-0.0042724609375,-0.02801513671875,0.0760498046875,0.9967041015625,0.015625,-0.001953125,-0.025390625,0.53515625,-0.078125,9.46484375
946,904000000,imu2_frame,-0.0042724609375,-0.02801513671875,0.0760498046875,0.9967041015625,0.015625,-0.001953125,-0.025390625,0.53515625,-0.078125,9.46484375
946,924000000,imu2_frame,-0.0042724609375,-0.02801513671875,0.0760498046875,0.9967041015625,0.015625,-0.001953125,-0.025390625,0.53515625,-0.078125,9.46484375
946,944000000,imu2_frame,-0.0042724609375,-0.02801513671875,0.0760498046875,0.9967041015625,0.015625,-0.001953125,-0.025390625,0.53515625,-0.078125,9.46484375
946,964000000,imu2_frame,-0.0042724609375,-0.02801513671875,0.0760498046875,0.9967041015625,0.015625,-0.001953125,-0.025390625,0.53515625,-0.078125,9.46484375
946,984000000,imu2_frame,-0.0042724609375,-0.02801513671875,0.0760498046875,0.9967041015625,0.015625,-0.001953125,-0.025390625,0.53515625,-0.078125,9.46484375
947,4000000,imu2_frame,-0.0042724609375,-0.02801513671875,0.0760498046875,0.9967041015625,0.015625,-0.001953125,-0.025390625,0.53515625,-0.078125,9.46484375
947,24000000,imu2_frame,-0.0042724609375,-0.02801513671875,0.0760498046875,0.9967041015625,0.015625,-0.001953125,-0.025390625,0.53515625,-0.078125,9.46484375
947,44000000,imu2_frame,-0.0042724609375,-0.02801513671875,0.0760498046875,0.9967041015625,0.015625,-0.001953125,-0.025390625,0.53515625,-0.078125,9.46484375
947,64000000,imu2_frame,-0.0042724609375,-0.02801513671875,0.0760498046875,0.9967041015625,0.015625,-0.001953125,-0.025390625,0.53515625,-0.078125,9.46484375
947,84000000,imu2_frame,-0.0020751953125,-0.0302734375,0.0113525390625,0.99945068359375,0.015625,-0.001953125,-0.025390625,0.53515625,-0.078125,9.46484375
947,104000000,imu2_frame,-0.0020751953125,-0.0302734375,0.0113525390625,0.99945068359375,0.015625,-0.001953125,-0.025390625,0.53515625,-0.078125,9.46484375
947,124000000,imu2_frame,-0.0020751953125,-0.0302734375,0.0113525390625,0.99945068359375,0.015625,-0.001953125,-0.025390625,0.53515625,-0.078125,9.46484375
947,144000000,imu2_frame,-0.0020751953125,-0.0302734375,0.0113525390625,0.99945068359375,0.015625,-0.001953125,-0.025390625,0.53515625,-0.078125,9.46484375
947,164000000,imu2_frame,-0.0020751953125,-0.0302734375,0.0113525390625,0.99945068359375,0.0,0.0,-0.001953125,0.53515625,-0.078125,9.46484375
947,184000000,imu2_frame,-0.0020751953125,-0.0302734375,0.0113525390625,0.99945068359375,-0.001953125,0.0,0.001953125,0.53515625,-0.078125,9.46484375
947,204000000,imu2_frame,-0.0020751953125,-0.0302734375,0.0113525390625,0.99945068359375,-0.001953125,0.0,0.001953125,0.53515625,-0.078125,9.46484375
947,224000000,imu2_frame,-0.0020751953125,-0.0302734375,0.0113525390625,0.99945068359375,-0.001953125,0.0,0.001953125,0.53515625,-0.078125,9.46484375
947,244000000,imu2_frame,-0.00250244140625,-0.0303955078125,0.0113525390625,0.99945068359375,-0.001953125,0.0,0.001953125,0.53515625,-0.078125,9.46484375
947,264000000,imu2_frame,-0.00250244140625,-0.0303955078125,0.0113525390625,0.99945068359375,0.001953125,0.0,0.0,0.53515625,-0.078125,9.46484375
947,284000000,imu2_frame,-0.00250244140625,-0.0303955078125,0.0113525390625,0.99945068359375,0.001953125,0.0,0.0,0.53515625,-0.078125,9.46484375
947,304000000,imu2_frame,-0.00250244140625,-0.0303955078125,0.0113525390625,0.99945068359375,0.001953125,0.0,0.0,0.53515625,-0.078125,9.46484375
947,324000000,imu2_frame,-0.00274658203125,-0.030517578125,0.0113525390625,0.99945068359375,0.001953125,0.0,0.0,0.53515625,-0.078125,9.46484375
947,344000000,imu2_frame,-0.0028076171875,-0.030517578125,0.0113525390625,0.99945068359375,0.001953125,0.0,0.0,0.53515625,-0.078125,9.46484375
947,364000000,imu2_frame,-0.0028076171875,-0.030517578125,0.0113525390625,0.99945068359375,0.001953125,0.0,0.0,0.53515625,-0.078125,9.46484375
947,384000000,imu2_frame,-0.0028076171875,-0.030517578125,0.0113525390625,0.99945068359375,0.001953125,0.0,0.0,0.53515625,-0.078125,9.46484375
947,404000000,imu2_frame,-0.00299072265625,-0.03057861328125,0.0113525390625,0.99945068359375,0.001953125,0.0,0.0,0.53515625,-0.078125,9.46484375
947,424000000,imu2_frame,-0.00299072265625,-0.03057861328125,0.0113525390625,0.99945068359375,0.0,0.0,0.0,0.53515625,-0.078125,9.46484375
947,444000000,imu2_frame,-0.00299072265625,-0.03057861328125,0.0113525390625,0.99945068359375,0.0,0.0,0.0,0.53515625,-0.078125,9.46484375
947,464000000,imu2_frame,-0.00299072265625,-0.03057861328125,0.0113525390625,0.99945068359375,0.0,0.0,0.0,0.53515625,-0.078125,9.46484375
947,484000000,imu2_frame,-0.00323486328125,-0.0306396484375,0.0113525390625,0.99945068359375,0.0,0.0,0.0,0.53515625,-0.078125,9.46484375
947,504000000,imu2_frame,-0.00323486328125,-0.0306396484375,0.0113525390625,0.99945068359375,0.001953125,0.0,0.001953125,0.53515625,-0.078125,9.46484375
947,524000000,imu2_frame,-0.00323486328125,-0.0306396484375,0.0113525390625,0.99945068359375,0.001953125,0.0,0.001953125,0.53515625,-0.078125,9.46484375
947,544000000,imu2_frame,-0.00323486328125,-0.0306396484375,0.0113525390625,0.99945068359375,0.001953125,0.0,0.001953125,0.53515625,-0.078125,9.46484375
947,564000000,imu2_frame,-0.00347900390625,-0.03076171875,0.0113525390625,0.99945068359375,0.001953125,0.0,0.001953125,0.53515625,-0.078125,9.46484375
947,584000000,imu2_frame,-0.00347900390625,-0.03076171875,0.0113525390625,0.99945068359375,0.001953125,0.0,0.001953125,0.53515625,-0.078125,9.46484375
947,604000000,imu2_frame,-0.00347900390625,-0.03076171875,0.0113525390625,0.99945068359375,0.001953125,0.0,0.001953125,0.53515625,-0.078125,9.46484375
947,624000000,imu2_frame,-0.00360107421875,-0.03076171875,0.01141357421875,0.99945068359375,0.001953125,0.0,0.001953125,0.53515625,-0.078125,9.46484375
947,644000000,imu2_frame,-0.00360107421875,-0.03076171875,0.01141357421875,0.99945068359375,0.0,0.0,0.0,0.53515625,-0.078125,9.46484375
947,664000000,imu2_frame,-0.00372314453125,-0.03082275390625,0.01141357421875,0.99945068359375,0.0,0.0,0.0,0.53515625,-0.078125,9.46484375
947,684000000,imu2_frame,-0.00372314453125,-0.03082275390625,0.01141357421875,0.99945068359375,0.0,0.0,0.0,0.53515625,-0.078125,9.46484375
947,704000000,imu2_frame,-0.00372314453125,-0.03082275390625,0.01141357421875,0.99945068359375,0.0,-0.001953125,0.0,0.53515625,-0.078125,9.46484375
947,724000000,imu2_frame,-0.00372314453125,-0.03082275390625,0.01141357421875,0.99945068359375,-0.001953125,0.0,0.0,0.53515625,-0.078125,9.46484375
947,744000000,imu2_frame,-0.00372314453125,-0.03082275390625,0.01141357421875,0.99945068359375,-0.001953125,0.0,0.0,0.53515625,-0.078125,9.46484375
947,764000000,imu2_frame,-0.00372314453125,-0.03082275390625,0.01141357421875,0.99945068359375,-0.001953125,0.0,0.0,0.53515625,-0.078125,9.46484375
947,784000000,imu2_frame,-0.00372314453125,-0.03082275390625,0.01141357421875,0.99945068359375,0.001953125,0.0,0.0,0.53515625,-0.078125,9.46484375
947,804000000,imu2_frame,-0.00372314453125,-0.03082275390625,0.01141357421875,0.99945068359375,-0.001953125,0.0,-0.001953125,0.53515625,-0.078125,9.46484375
947,824000000,imu2_frame,-0.00372314453125,-0.03082275390625,0.01141357421875,0.99945068359375,0.0,0.0,0.0,0.53515625,-0.078125,9.46484375
947,844000000,imu2_frame,-0.00372314453125,-0.03082275390625,0.01141357421875,0.99945068359375,0.001953125,-0.001953125,0.0,0.53515625,-0.078125,9.46484375
947,864000000,imu2_frame,-0.00372314453125,-0.03082275390625,0.01141357421875,0.99945068359375,0.00390625,0.0,0.001953125,0.53515625,-0.078125,9.46484375
947,884000000,imu2_frame,-0.00372314453125,-0.03082275390625,0.01141357421875,0.99945068359375,0.001953125,0.0,0.0,0.53515625,-0.078125,9.46484375
947,904000000,imu2_frame,-0.00372314453125,-0.03082275390625,0.01141357421875,0.99945068359375,0.0,0.0,0.0,0.53515625,-0.078125,9.46484375
947,924000000,imu2_frame,-0.00372314453125,-0.03082275390625,0.01141357421875,0.99945068359375,0.0,0.0,0.001953125,0.53515625,-0.078125,9.46484375
947,944000000,imu2_frame,-0.00372314453125,-0.03082275390625,0.01141357421875,0.99945068359375,-0.001953125,0.0,-0.001953125,0.53515625,-0.078125,9.46484375
947,964000000,imu2_frame,-0.00372314453125,-0.03082275390625,0.01141357421875,0.99945068359375,0.0,0.001953125,-0.001953125,0.53515625,-0.078125,9.46484375
947,984000000,imu2_frame,-0.00372314453125,-0.03082275390625,0.01141357421875,0.99945068359375,0.001953125,0.0,-0.001953125,0.53515625,-0.078125,9.46484375
948,4000000,imu2_frame,-0.00372314453125,-0.03082275390625,0.01141357421875,0.99945068359375,0.001953125,0.0,0.0,0.53515625,-0.078125,9.46484375
948,24000000,imu2_frame,-0.00372314453125,-0.03082275390625,0.01141357421875,0.99945068359375,0.0,0.0,0.0,0.53515625,-0.078125,9.46484375
948,44000000,imu2_frame,-0.00372314453125,-0.03082275390625,0.01141357421875,0.99945068359375,0.0,0.0,0.0,0.53515625,-0.078125,9.46484375
948,64000000,imu2_frame,-0.00372314453125,-0.03082275390625,0.01141357421875,0.99945068359375,-0.001953125,0.0,-0.001953125,0.53515625,-0.078125,9.46484375
948,84000000,imu2_frame,-0.00372314453125,-0.03082275390625,0.01141357421875,0.99945068359375,0.0,0.0,-0.0078125,0.53515625,-0.078125,9.46484375
948,104000000,imu2_frame,-0.00372314453125,-0.03082275390625,0.01141357421875,0.99945068359375,0.001953125,-0.001953125,-0.01171875,0.53515625,-0.078125,9.46484375
948,124000000,imu2_frame,-0.00372314453125,-0.03082275390625,0.01141357421875,0.99945068359375,0.0,0.0,-0.0078125,0.53515625,-0.078125,9.46484375
948,144000000,imu2_frame,-0.00372314453125,-0.03082275390625,0.01141357421875,0.99945068359375,0.001953125,-0.001953125,-0.0078125,0.53515625,-0.078125,9.46484375
948,164000000,imu2_frame,-0.00372314453125,-0.03082275390625,0.01141357421875,0.99945068359375,0.0,0.0,-0.005859375,0.53515625,-0.078125,9.46484375
948,184000000,imu2_frame,-0.00372314453125,-0.03082275390625,0.01141357421875,0.99945068359375,-0.00390625,0.0,0.0,0.53515625,-0.078125,9.46484375
948,204000000,imu2_frame,-0.00372314453125,-0.03082275390625,0.01141357421875,0.99945068359375,0.0,0.0,0.0,0.53515625,-0.078125,9.46484375
948,224000000,imu2_frame,-0.00372314453125,-0.03082275390625,0.01141357421875,0.99945068359375,0.0,0.0,-0.001953125,0.53515625,-0.078125,9.46484375
948,244000000,imu2_frame,-0.00372314453125,-0.03082275390625,0.01141357421875,0.99945068359375,0.0,0.0,-0.001953125,0.53515625,-0.078125,9.46484375
948,264000000,imu2_frame,-0.00372314453125,-0.03082275390625,0.01141357421875,0.99945068359375,0.001953125,0.0,-0.001953125,0.53515625,-0.078125,9.46484375
948,284000000,imu2_frame,-0.00372314453125,-0.03082275390625,0.01141357421875,0.99945068359375,-0.00390625,0.001953125,-0.005859375,0.53515625,-0.078125,9.46484375
948,304000000,imu2_frame,-0.00372314453125,-0.03082275390625,0.01141357421875,0.99945068359375,0.0,0.0,-0.00390625,0.53515625,-0.078125,9.46484375
948,324000000,imu2_frame,-0.00372314453125,-0.03082275390625,0.01141357421875,0.99945068359375,0.0,-0.001953125,-0.005859375,0.53515625,-0.078125,9.46484375
948,344000000,imu2_frame,-0.00372314453125,-0.03082275390625,0.01141357421875,0.99945068359375,-0.001953125,0.0,-0.001953125,0.53515625,-0.078125,9.46484375
948,364000000,imu2_frame,-0.00372314453125,-0.03082275390625,0.01141357421875,0.99945068359375,0.0,0.0,-0.001953125,0.53515625,-0.078125,9.46484375
948,384000000,imu2_frame,-0.00372314453125,-0.03082275390625,0.01141357421875,0.99945068359375,-0.00390625,-0.001953125,-0.005859375,0.53515625,-0.078125,9.46484375
948,404000000,imu2_frame,-0.00372314453125,-0.03082275390625,0.01141357421875,0.99945068359375,0.001953125,-0.001953125,-0.00390625,0.53515625,-0.078125,9.46484375
948,424000000,imu2_frame,-0.00372314453125,-0.03082275390625,0.01141357421875,0.99945068359375,0.0,0.001953125,-0.001953125,0.53515625,-0.078125,9.46484375
948,444000000,imu2_frame,-0.00372314453125,-0.03082275390625,0.01141357421875,0.99945068359375,0.0,0.0,0.0,0.53515625,-0.078125,9.46484375
948,464000000,imu2_frame,-0.00372314453125,-0.03082275390625,0.01141357421875,0.99945068359375,0.0,0.0,-0.001953125,0.53515625,-0.078125,9.46484375
948,484000000,imu2_frame,-0.00372314453125,-0.03082275390625,0.01141357421875,0.99945068359375,-0.00390625,0.0,0.0,0.53515625,-0.078125,9.46484375
948,504000000,imu2_frame,-0.00372314453125,-0.03082275390625,0.01141357421875,0.99945068359375,0.0,0.0,0.0,0.53515625,-0.078125,9.46484375
948,524000000,imu2_frame,-0.00372314453125,-0.03082275390625,0.01141357421875,0.99945068359375,-0.00390625,0.0,0.0,0.53515625,-0.078125,9.46484375
948,544000000,imu2_frame,-0.00372314453125,-0.03082275390625,0.01141357421875,0.99945068359375,0.001953125,0.0,0.0,0.53515625,-0.078125,9.46484375
948,564000000,imu2_frame,-0.00372314453125,-0.03082275390625,0.01141357421875,0.99945068359375,0.001953125,0.0,0.0,0.53515625,-0.078125,9.46484375
948,584000000,imu2_frame,-0.00372314453125,-0.03082275390625,0.01141357421875,0.99945068359375,0.001953125,0.0,0.0,0.53515625,-0.078125,9.46484375
948,604000000,imu2_frame,-0.00372314453125,-0.03082275390625,0.01141357421875,0.99945068359375,0.001953125,-0.001953125,-0.001953125,0.53515625,-0.078125,9.46484375
948,624000000,imu2_frame,-0.00372314453125,-0.03082275390625,0.01141357421875,0.99945068359375,0.0,0.0,-0.0078125,0.53515625,-0.078125,9.46484375
948,644000000,imu2_frame,-0.00372314453125,-0.03082275390625,0.01141357421875,0.99945068359375,0.00390625,0.0,-0.001953125,0.53515625,-0.078125,9.46484375
948,664000000,imu2_frame,-0.00372314453125,-0.03082275390625,0.01141357421875,0.99945068359375,-0.00390625,0.0,-0.005859375,0.53515625,-0.078125,9.46484375
948,684000000,imu2_frame,-0.00372314453125,-0.03082275390625,0.01141357421875,0.99945068359375,0.001953125,-0.001953125,0.0,0.53515625,-0.078125,9.46484375
948,704000000,imu2_frame,-0.00372314453125,-0.03082275390625,0.01141357421875,0.99945068359375,0.001953125,0.0,0.0,0.53515625,-0.078125,9.46484375
948,724000000,imu2_frame,-0.00372314453125,-0.03082275390625,0.01141357421875,0.99945068359375,0.001953125,-0.001953125,0.0,0.53515625,-0.078125,9.46484375
948,744000000,imu2_frame,-0.00372314453125,-0.03082275390625,0.01141357421875,0.99945068359375,0.001953125,0.0,0.0,0.53515625,-0.078125,9.46484375
948,764000000,imu2_frame,-0.00372314453125,-0.03082275390625,0.01141357421875,0.99945068359375,0.0,0.0,-0.00390625,0.53515625,-0.078125,9.46484375
948,784000000,imu2_frame,-0.00372314453125,-0.03082275390625,0.01141357421875,0.99945068359375,-0.001953125,0.0,-0.001953125,0.53515625,-0.078125,9.46484375
948,804000000,imu2_frame,-0.00372314453125,-0.03082275390625,0.01141357421875,0.99945068359375,0.001953125,0.0,-0.001953125,0.53515625,-0.078125,9.46484375
948,824000000,imu2_frame,-0.00372314453125,-0.03082275390625,0.01141357421875,0.99945068359375,0.0,0.0,0.0,0.53515625,-0.078125,9.46484375
948,844000000,imu2_frame,-0.00372314453125,-0.03082275390625,0.01141357421875,0.99945068359375,0.0,0.0,0.0,0.53515625,-0.078125,9.46484375
948,864000000,imu2_frame,-0.00372314453125,-0.03082275390625,0.01141357421875,0.99945068359375,0.0,0.0,-0.001953125,0.53515625,-0.078125,9.46484375
948,884000000,imu2_frame,-0.00372314453125,-0.03082275390625,0.01141357421875,0.99945068359375,-0.001953125,-0.001953125,0.001953125,0.53515625,-0.078125,9.46484375
948,904000000,imu2_frame,-0.00372314453125,-0.03082275390625,0.01141357421875,0.99945068359375,-0.001953125,0.001953125,0.0,0.53515625,-0.078125,9.46484375
948,924000000,imu2_frame,-0.00372314453125,-0.03082275390625,0.01141357421875,0.99945068359375,0.0,0.001953125,-0.001953125,0.53515625,-0.078125,9.46484375
948,944000000,imu2_frame,-0.00372314453125,-0.03082275390625,0.01141357421875,0.99945068359375,0.001953125,0.0,0.0,0.53515625,-0.078125,9.46484375
948,964000000,imu2_frame,-0.00372314453125,-0.03082275390625,0.01141357421875,0.99945068359375,0.001953125,-0.001953125,0.0,0.53515625,-0.078125,9.46484375
948,984000000,imu2_frame,-0.00372314453125,-0.03082275390625,0.01141357421875,0.99945068359375,-0.00390625,0.0,-0.001953125,0.53515625,-0.078125,9.46484375
949,4000000,imu2_frame,-0.00372314453125,-0.03082275390625,0.01141357421875,0.99945068359375,0.001953125,-0.001953125,-0.013671875,0.53515625,-0.078125,9.46484375
949,24000000,imu2_frame,-0.00372314453125,-0.03082275390625,0.01141357421875,0.99945068359375,0.0,0.0,-0.005859375,0.53515625,-0.078125,9.46484375
949,44000000,imu2_frame,-0.00372314453125,-0.03082275390625,0.01141357421875,0.99945068359375,0.0,0.0,-0.001953125,0.53515625,-0.078125,9.46484375
949,64000000,imu2_frame,-0.00372314453125,-0.03082275390625,0.01141357421875,0.99945068359375,-0.00390625,-0.001953125,0.001953125,0.53515625,-0.078125,9.46484375
949,84000000,imu2_frame,-0.00372314453125,-0.03082275390625,0.01141357421875,0.99945068359375,-0.00390625,0.0,-0.001953125,0.53515625,-0.078125,9.46484375
949,105000000,imu2_frame,-0.00372314453125,-0.03082275390625,0.01141357421875,0.99945068359375,0.001953125,0.0,0.001953125,0.53515625,-0.078125,9.46484375
949,124000000,imu2_frame,-0.00543212890625,-0.0308837890625,0.01007080078125,0.99945068359375,0.001953125,0.0,0.001953125,0.53515625,-0.078125,9.46484375
949,144000000,imu2_frame,-0.00543212890625,-0.03082275390625,0.01007080078125,0.99945068359375,0.001953125,0.0,0.001953125,0.53515625,-0.078125,9.46484375
949,164000000,imu2_frame,-0.00543212890625,-0.03082275390625,0.01007080078125,0.99945068359375,0.0,-0.001953125,-0.001953125,0.53515625,-0.078125,9.46484375
949,184000000,imu2_frame,-0.00543212890625,-0.03082275390625,0.01007080078125,0.99945068359375,0.001953125,0.0,0.0,0.53515625,-0.078125,9.46484375
949,204000000,imu2_frame,-0.00543212890625,-0.03082275390625,0.01007080078125,0.99945068359375,-0.00390625,0.0,0.0,0.53515625,-0.078125,9.46484375
949,224000000,imu2_frame,-0.00543212890625,-0.03082275390625,0.01007080078125,0.99945068359375,0.0,-0.001953125,0.0,0.53515625,-0.078125,9.46484375
949,244000000,imu2_frame,-0.00543212890625,-0.03082275390625,0.01007080078125,0.99945068359375,0.00390625,0.0,0.0,0.53515625,-0.078125,9.46484375
949,264000000,imu2_frame,-0.00543212890625,-0.03082275390625,0.01007080078125,0.99945068359375,-0.001953125,0.0,0.0,0.53515625,-0.078125,9.46484375
949,284000000,imu2_frame,-0.00543212890625,-0.03082275390625,0.01007080078125,0.99945068359375,-0.001953125,0.0,-0.001953125,0.53515625,-0.078125,9.46484375
949,304000000,imu2_frame,-0.00543212890625,-0.03082275390625,0.01007080078125,0.99945068359375,-0.001953125,0.0,-0.001953125,0.53515625,-0.078125,9.46484375
949,324000000,imu2_frame,-0.00543212890625,-0.03082275390625,0.01007080078125,0.99945068359375,0.0,0.0,0.0,0.53515625,-0.078125,9.46484375
949,344000000,imu2_frame,-0.00543212890625,-0.03082275390625,0.01007080078125,0.99945068359375,0.0,0.001953125,0.0,0.53515625,-0.078125,9.46484375
949,364000000,imu2_frame,-0.00543212890625,-0.03082275390625,0.01007080078125,0.99945068359375,0.0,0.0,0.001953125,0.53515625,-0.078125,9.46484375
949,384000000,imu2_frame,-0.00543212890625,-0.03082275390625,0.01007080078125,0.99945068359375,0.0,-0.001953125,0.001953125,0.53515625,-0.078125,9.46484375
949,404000000,imu2_frame,-0.00543212890625,-0.03082275390625,0.01007080078125,0.99945068359375,0.0,-0.001953125,0.0,0.53515625,-0.078125,9.46484375
949,424000000,imu2_frame,-0.00543212890625,-0.03082275390625,0.01007080078125,0.99945068359375,0.00390625,0.0,0.001953125,0.53515625,-0.078125,9.46484375
949,444000000,imu2_frame,-0.00543212890625,-0.03082275390625,0.01007080078125,0.99945068359375,0.0,-0.001953125,-0.001953125,0.53515625,-0.078125,9.46484375
949,464000000,imu2_frame,-0.00543212890625,-0.03082275390625,0.01007080078125,0.99945068359375,0.00390625,0.0,0.0,0.53515625,-0.078125,9.46484375
949,484000000,imu2_frame,-0.00543212890625,-0.03082275390625,0.01007080078125,0.99945068359375,0.0,0.001953125,0.0,0.53515625,-0.078125,9.46484375
949,504000000,imu2_frame,-0.00543212890625,-0.03082275390625,0.01007080078125,0.99945068359375,0.001953125,0.0,-0.001953125,0.53515625,-0.078125,9.46484375
949,524000000,imu2_frame,-0.00543212890625,-0.03082275390625,0.01007080078125,0.99945068359375,0.0,0.0,0.001953125,0.53515625,-0.078125,9.46484375
949,544000000,imu2_frame,-0.00543212890625,-0.03082275390625,0.01007080078125,0.99945068359375,-0.00390625,-0.001953125,-0.001953125,0.53515625,-0.078125,9.46484375
949,564000000,imu2_frame,-0.00543212890625,-0.03082275390625,0.01007080078125,0.99945068359375,0.0,0.0,0.001953125,0.53515625,-0.078125,9.46484375
949,584000000,imu2_frame,-0.00543212890625,-0.03082275390625,0.01007080078125,0.99945068359375,-0.001953125,0.0,0.001953125,0.53515625,-0.078125,9.46484375
949,604000000,imu2_frame,-0.00543212890625,-0.03082275390625,0.01007080078125,0.99945068359375,0.001953125,0.0,0.001953125,0.53515625,-0.078125,9.46484375
949,624000000,imu2_frame,-0.00543212890625,-0.03082275390625,0.01007080078125,0.99945068359375,0.00390625,0.0,0.0,0.53515625,-0.078125,9.46484375
949,644000000,imu2_frame,-0.00543212890625,-0.03082275390625,0.01007080078125,0.99945068359375,0.001953125,-0.00390625,0.001953125,0.53515625,-0.078125,9.46484375
949,664000000,imu2_frame,-0.00543212890625,-0.03082275390625,0.01007080078125,0.99945068359375,0.0,0.0,-0.001953125,0.53515625,-0.078125,9.46484375
949,684000000,imu2_frame,-0.00543212890625,-0.03082275390625,0.01007080078125,0.99945068359375,0.0,-0.001953125,0.001953125,0.53515625,-0.078125,9.46484375
949,704000000,imu2_frame,-0.00543212890625,-0.03082275390625,0.01007080078125,0.99945068359375,0.0,0.0,-0.001953125,0.53515625,-0.078125,9.46484375
949,724000000,imu2_frame,-0.00543212890625,-0.03082275390625,0.01007080078125,0.99945068359375,0.001953125,-0.001953125,0.001953125,0.53515625,-0.078125,9.46484375
949,744000000,imu2_frame,-0.00543212890625,-0.03082275390625,0.01007080078125,0.99945068359375,-0.001953125,0.0,-0.001953125,0.53515625,-0.078125,9.46484375
949,764000000,imu2_frame,-0.00543212890625,-0.03082275390625,0.01007080078125,0.99945068359375,0.001953125,0.0,0.0,0.53515625,-0.078125,9.46484375
949,784000000,imu2_frame,-0.00543212890625,-0.03082275390625,0.01007080078125,0.99945068359375,0.0,-0.001953125,0.0,0.53515625,-0.078125,9.46484375
949,804000000,imu2_frame,-0.00543212890625,-0.03082275390625,0.01007080078125,0.99945068359375,0.0,0.0,0.0,0.53515625,-0.078125,9.46484375
949,824000000,imu2_frame,-0.00543212890625,-0.03082275390625,0.01007080078125,0.99945068359375,0.001953125,-0.001953125,0.001953125,0.53515625,-0.078125,9.46484375
949,844000000,imu2_frame,-0.00543212890625,-0.03082275390625,0.01007080078125,0.99945068359375,0.0,0.0,0.0,0.53515625,-0.078125,9.46484375
949,864000000,imu2_frame,-0.00543212890625,-0.03082275390625,0.01007080078125,0.99945068359375,0.001953125,0.001953125,-0.001953125,0.53515625,-0.078125,9.46484375
949,884000000,imu2_frame,-0.00543212890625,-0.03082275390625,0.01007080078125,0.99945068359375,0.0,0.0,0.001953125,0.53515625,-0.078125,9.46484375
949,904000000,imu2_frame,-0.00543212890625,-0.03082275390625,0.01007080078125,0.99945068359375,-0.001953125,0.0,0.0,0.53515625,-0.078125,9.46484375
949,924000000,imu2_frame,-0.00543212890625,-0.03082275390625,0.01007080078125,0.99945068359375,-0.001953125,0.0,-0.001953125,0.53515625,-0.078125,9.46484375
949,944000000,imu2_frame,-0.00543212890625,-0.03082275390625,0.01007080078125,0.99945068359375,-0.001953125,-0.001953125,0.001953125,0.53515625,-0.078125,9.46484375
949,964000000,imu2_frame,-0.00543212890625,-0.03082275390625,0.01007080078125,0.99945068359375,0.0,0.0,0.0,0.53515625,-0.078125,9.46484375
949,984000000,imu2_frame,-0.00543212890625,-0.03082275390625,0.01007080078125,0.99945068359375,0.001953125,0.0,0.00390625,0.53515625,-0.078125,9.46484375
950,4000000,imu2_frame,-0.00543212890625,-0.03082275390625,0.01007080078125,0.99945068359375,0.0,-0.001953125,0.0,0.53515625,-0.078125,9.46484375
950,24000000,imu2_frame,-0.00543212890625,-0.03082275390625,0.01007080078125,0.99945068359375,0.0,0.0,0.0,0.53515625,-0.078125,9.46484375
950,44000000,imu2_frame,-0.00543212890625,-0.03082275390625,0.01007080078125,0.99945068359375,0.0,0.0,0.0,0.53515625,-0.078125,9.46484375
950,64000000,imu2_frame,-0.00543212890625,-0.03082275390625,0.01007080078125,0.99945068359375,-0.001953125,0.0,0.0,0.53515625,-0.078125,9.46484375
950,84000000,imu2_frame,-0.00543212890625,-0.03082275390625,0.01007080078125,0.99945068359375,-0.001953125,0.0,0.0,0.53515625,-0.078125,9.46484375
950,104000000,imu2_frame,-0.00543212890625,-0.03082275390625,0.01007080078125,0.99945068359375,0.00390625,0.0,0.0,0.53515625,-0.078125,9.46484375
950,124000000,imu2_frame,-0.00543212890625,-0.03082275390625,0.01007080078125,0.99945068359375,0.001953125,-0.001953125,0.0,0.53515625,-0.078125,9.46484375
950,144000000,imu2_frame,-0.00543212890625,-0.03082275390625,0.01007080078125,0.99945068359375,0.0,0.0,-0.001953125,0.53515625,-0.078125,9.46484375
950,164000000,imu2_frame,-0.00543212890625,-0.03082275390625,0.01007080078125,0.99945068359375,-0.001953125,-0.001953125,-0.001953125,0.53515625,-0.078125,9.46484375
950,184000000,imu2_frame,-0.00543212890625,-0.03082275390625,0.01007080078125,0.99945068359375,-0.00390625,0.0,-0.001953125,0.53515625,-0.078125,9.46484375
950,204000000,imu2_frame,-0.00543212890625,-0.03082275390625,0.01007080078125,0.99945068359375,0.001953125,-0.001953125,-0.001953125,0.53515625,-0.078125,9.46484375
950,224000000,imu2_frame,-0.00543212890625,-0.03082275390625,0.01007080078125,0.99945068359375,0.0,-0.00390625,-0.03515625,0.53515625,-0.078125,9.46484375
950,244000000,imu2_frame,-0.00543212890625,-0.03082275390625,0.01007080078125,0.99945068359375,-0.033203125,0.0,-0.462890625,0.53515625,-0.078125,9.46484375
950,264000000,imu2_frame,-0.00543212890625,-0.03082275390625,0.01007080078125,0.99945068359375,-0.033203125,0.0,-0.462890625,0.53515625,-0.078125,9.46484375
950,284000000,imu2_frame,-0.00543212890625,-0.03082275390625,0.01007080078125,0.99945068359375,0.001953125,0.015625,-0.126953125,0.53515625,-0.078125,9.46484375
950,304000000,imu2_frame,-0.00543212890625,-0.03082275390625,0.01007080078125,0.99945068359375,0.001953125,0.001953125,-0.107421875,0.53515625,-0.078125,9.46484375
950,324000000,imu2_frame,-0.00543212890625,-0.03082275390625,0.01007080078125,0.99945068359375,-0.029296875,0.005859375,-0.138671875,0.53515625,-0.078125,9.46484375
950,344000000,imu2_frame,-0.00543212890625,-0.03082275390625,0.01007080078125,0.99945068359375,-0.029296875,0.005859375,-0.138671875,0.53515625,-0.078125,9.46484375
950,364000000,imu2_frame,-0.00543212890625,-0.03082275390625,0.01007080078125,0.99945068359375,0.00390625,0.015625,-0.18359375,0.53515625,-0.078125,9.46484375
950,384000000,imu2_frame,-0.00543212890625,-0.03082275390625,0.01007080078125,0.99945068359375,0.005859375,-0.0078125,0.0,0.53515625,-0.078125,9.46484375
950,404000000,imu2_frame,-0.00543212890625,-0.03082275390625,0.01007080078125,0.99945068359375,0.015625,0.01953125,-0.171875,0.53515625,-0.078125,9.46484375
950,424000000,imu2_frame,-0.00543212890625,-0.03082275390625,0.01007080078125,0.99945068359375,0.015625,0.01953125,-0.171875,0.53515625,-0.078125,9.46484375
950,444000000,imu2_frame,-0.00543212890625,-0.03082275390625,0.01007080078125,0.99945068359375,-0.0078125,0.009765625,-0.005859375,0.53515625,-0.078125,9.46484375
950,464000000,imu2_frame,-0.00543212890625,-0.03082275390625,0.01007080078125,0.99945068359375,-0.0078125,0.009765625,-0.005859375,0.53515625,-0.078125,9.46484375
950,484000000,imu2_frame,-0.00543212890625,-0.03082275390625,0.01007080078125,0.99945068359375,-0.009765625,0.0,0.23828125,0.53515625,-0.078125,9.46484375
950,504000000,imu2_frame,-0.00543212890625,-0.03082275390625,0.01007080078125,0.99945068359375,-0.009765625,0.0,0.23828125,0.53515625,-0.078125,9.46484375
950,524000000,imu2_frame,-0.00543212890625,-0.03082275390625,0.01007080078125,0.99945068359375,-0.017578125,0.005859375,-0.158203125,0.53515625,-0.078125,9.46484375
950,544000000,imu2_frame,-0.00543212890625,-0.03082275390625,0.01007080078125,0.99945068359375,0.021484375,-0.013671875,-0.0390625,0.53515625,-0.078125,9.46484375
950,564000000,imu2_frame,-0.00543212890625,-0.03082275390625,0.01007080078125,0.99945068359375,0.01171875,-0.001953125,-0.10546875,0.53515625,-0.078125,9.46484375
950,584000000,imu2_frame,-0.00543212890625,-0.03082275390625,0.01007080078125,0.99945068359375,0.01171875,-0.001953125,-0.10546875,0.53515625,-0.078125,9.46484375
950,604000000,imu2_frame,-0.00543212890625,-0.03082275390625,0.01007080078125,0.99945068359375,0.009765625,-0.00390625,0.05078125,0.53515625,-0.078125,9.46484375
950,624000000,imu2_frame,-0.00543212890625,-0.03082275390625,0.01007080078125,0.99945068359375,0.015625,0.009765625,-0.177734375,0.53515625,-0.078125,9.46484375
950,644000000,imu2_frame,-0.00543212890625,-0.03082275390625,0.01007080078125,0.99945068359375,0.00390625,-0.001953125,-0.04296875,0.53515625,-0.078125,9.46484375
950,664000000,imu2_frame,-0.00543212890625,-0.03082275390625,0.01007080078125,0.99945068359375,0.00390625,-0.001953125,-0.04296875,0.53515625,-0.078125,9.46484375
950,684000000,imu2_frame,-0.00543212890625,-0.03082275390625,0.01007080078125,0.99945068359375,-0.017578125,0.005859375,-0.1171875,0.53515625,-0.078125,9.46484375
950,704000000,imu2_frame,-0.00543212890625,-0.03082275390625,0.01007080078125,0.99945068359375,0.0,-0.01171875,-0.056640625,0.53515625,-0.078125,9.46484375
950,724000000,imu2_frame,-0.00543212890625,-0.03082275390625,0.01007080078125,0.99945068359375,-0.005859375,-0.001953125,-0.16796875,0.53515625,-0.078125,9.46484375
950,744000000,imu2_frame,-0.00543212890625,-0.03082275390625,0.01007080078125,0.99945068359375,-0.005859375,-0.001953125,-0.16796875,0.53515625,-0.078125,9.46484375
950,764000000,imu2_frame,-0.00543212890625,-0.03082275390625,0.01007080078125,0.99945068359375,0.00390625,0.001953125,-0.05859375,0.53515625,-0.078125,9.46484375
950,784000000,imu2_frame,-0.00543212890625,-0.03082275390625,0.01007080078125,0.99945068359375,-0.03125,0.009765625,-0.201171875,0.53515625,-0.078125,9.46484375
950,804000000,imu2_frame,-0.00543212890625,-0.03082275390625,0.01007080078125,0.99945068359375,-0.0234375,0.001953125,-0.060546875,0.53515625,-0.078125,9.46484375
950,824000000,imu2_frame,-0.00543212890625,-0.03082275390625,0.01007080078125,0.99945068359375,-0.0234375,0.001953125,-0.060546875,0.53515625,-0.078125,9.46484375
950,844000000,imu2_frame,-0.00543212890625,-0.03082275390625,0.01007080078125,0.99945068359375,0.005859375,-0.021484375,-0.0546875,0.53515625,-0.078125,9.46484375
950,864000000,imu2_frame,-0.00543212890625,-0.03082275390625,0.01007080078125,0.99945068359375,0.01953125,0.009765625,-0.15625,0.53515625,-0.078125,9.46484375
950,884000000,imu2_frame,-0.00543212890625,-0.03082275390625,0.01007080078125,0.99945068359375,-0.02734375,0.025390625,-0.064453125,0.53515625,-0.078125,9.46484375
950,904000000,imu2_frame,-0.00543212890625,-0.03082275390625,0.01007080078125,0.99945068359375,-0.02734375,0.025390625,-0.064453125,0.53515625,-0.078125,9.46484375
950,924000000,imu2_frame,-0.00543212890625,-0.03082275390625,0.01007080078125,0.99945068359375,0.01953125,-0.005859375,-0.080078125,0.53515625,-0.078125,9.46484375
950,944000000,imu2_frame,-0.00543212890625,-0.03082275390625,0.01007080078125,0.99945068359375,0.033203125,-0.001953125,0.005859375,0.53515625,-0.078125,9.46484375
950,964000000,imu2_frame,-0.00543212890625,-0.03082275390625,0.01007080078125,0.99945068359375,-0.009765625,-0.00390625,-0.05078125,0.53515625,-0.078125,9.46484375
950,984000000,imu2_frame,-0.00543212890625,-0.03082275390625,0.01007080078125,0.99945068359375,-0.009765625,-0.00390625,-0.05078125,0.53515625,-0.078125,9.46484375
951,4000000,imu2_frame,-0.00543212890625,-0.03082275390625,0.01007080078125,0.99945068359375,-0.025390625,-0.00390625,0.013671875,0.53515625,-0.078125,9.46484375
951,24000000,imu2_frame,-0.00543212890625,-0.03082275390625,0.01007080078125,0.99945068359375,0.01171875,0.0,-0.0546875,0.53515625,-0.078125,9.46484375
951,44000000,imu2_frame,-0.00543212890625,-0.03082275390625,0.01007080078125,0.99945068359375,0.0078125,0.015625,-0.04296875,0.53515625,-0.078125,9.46484375
951,64000000,imu2_frame,-0.00543212890625,-0.03082275390625,0.01007080078125,0.99945068359375,0.0078125,0.015625,-0.04296875,0.53515625,-0.078125,9.46484375
951,84000000,imu2_frame,-0.00543212890625,-0.03082275390625,0.01007080078125,0.99945068359375,-0.00390625,-0.02734375,-0.0546875,0.53515625,-0.078125,9.46484375
951,106000000,imu2_frame,-0.00543212890625,-0.03082275390625,0.01007080078125,0.99945068359375,-0.013671875,0.005859375,-0.0703125,0.53515625,-0.078125,9.46484375
951,124000000,imu2_frame,-0.00543212890625,-0.03082275390625,0.01007080078125,0.99945068359375,0.001953125,0.005859375,-0.08203125,0.53515625,-0.078125,9.46484375
951,144000000,imu2_frame,-0.00543212890625,-0.03082275390625,0.01007080078125,0.99945068359375,-0.00390625,0.0078125,-0.09765625,0.53515625,-0.078125,9.46484375
951,164000000,imu2_frame,-0.00543212890625,-0.03082275390625,0.01007080078125,0.99945068359375,0.015625,-0.017578125,-0.224609375,0.53515625,-0.078125,9.46484375
951,184000000,imu2_frame,-0.00543212890625,-0.03082275390625,0.01007080078125,0.99945068359375,0.033203125,0.015625,-0.078125,0.53515625,-0.078125,9.46484375
951,204000000,imu2_frame,-0.00543212890625,-0.03082275390625,0.01007080078125,0.99945068359375,0.005859375,-0.00390625,-0.03125,0.53515625,-0.078125,9.46484375
951,224000000,imu2_frame,-0.00543212890625,-0.03082275390625,0.01007080078125,0.99945068359375,0.005859375,-0.00390625,-0.03125,0.53515625,-0.078125,9.46484375
951,244000000,imu2_frame,-0.00543212890625,-0.03082275390625,0.01007080078125,0.99945068359375,0.001953125,-0.00390625,-0.138671875,0.53515625,-0.078125,9.46484375
951,264000000,imu2_frame,-0.00543212890625,-0.03082275390625,0.01007080078125,0.99945068359375,0.0234375,0.009765625,-0.203125,0.53515625,-0.078125,9.46484375
951,284000000,imu2_frame,-0.00543212890625,-0.03082275390625,0.01007080078125,0.99945068359375,-0.001953125,0.0078125,-0.115234375,0.53515625,-0.078125,9.46484375
951,304000000,imu2_frame,-0.00543212890625,-0.03082275390625,0.01007080078125,0.99945068359375,-0.001953125,0.0078125,-0.115234375,0.53515625,-0.078125,9.46484375
951,324000000,imu2_frame,-0.00543212890625,-0.03082275390625,0.01007080078125,0.99945068359375,-0.005859375,0.009765625,-0.126953125,0.53515625,-0.078125,9.46484375
951,344000000,imu2_frame,-0.00543212890625,-0.03082275390625,0.01007080078125,0.99945068359375,-0.01953125,-0.021484375,-0.107421875,0.53515625,-0.078125,9.46484375
951,364000000,imu2_frame,-0.00543212890625,-0.03082275390625,0.01007080078125,0.99945068359375,0.025390625,-0.025390625,-0.091796875,0.53515625,-0.078125,9.46484375
951,384000000,imu2_frame,-0.00543212890625,-0.03082275390625,0.01007080078125,0.99945068359375,0.025390625,-0.025390625,-0.091796875,0.53515625,-0.078125,9.46484375
951,404000000,imu2_frame,-0.00543212890625,-0.03082275390625,0.01007080078125,0.99945068359375,0.00390625,-0.00390625,-0.064453125,0.53515625,-0.078125,9.46484375
951,424000000,imu2_frame,-0.00543212890625,-0.03082275390625,0.01007080078125,0.99945068359375,-0.01953125,-0.0078125,-0.046875,0.53515625,-0.078125,9.46484375
951,444000000,imu2_frame,-0.00543212890625,-0.03082275390625,0.01007080078125,0.99945068359375,-0.009765625,0.0078125,0.0078125,0.53515625,-0.078125,9.46484375
951,464000000,imu2_frame,-0.00543212890625,-0.03082275390625,0.01007080078125,0.99945068359375,0.009765625,-0.01171875,-0.107421875,0.53515625,-0.078125,9.46484375
951,484000000,imu2_frame,-0.00543212890625,-0.03082275390625,0.01007080078125,0.99945068359375,-0.021484375,0.0,-0.072265625,0.53515625,-0.078125,9.46484375
951,504000000,imu2_frame,-0.00543212890625,-0.03082275390625,0.01007080078125,0.99945068359375,-0.005859375,-0.005859375,-0.041015625,0.53515625,-0.078125,9.46484375
951,524000000,imu2_frame,-0.00543212890625,-0.03082275390625,0.01007080078125,0.99945068359375,0.013671875,0.00390625,-0.134765625,0.53515625,-0.078125,9.46484375
951,544000000,imu2_frame,-0.00543212890625,-0.03082275390625,0.01007080078125,0.99945068359375,-0.01953125,0.01171875,-0.046875,0.53515625,-0.078125,9.46484375
951,564000000,imu2_frame,-0.00543212890625,-0.03082275390625,0.01007080078125,0.99945068359375,0.013671875,-0.005859375,-0.16796875,0.53515625,-0.078125,9.46484375
951,584000000,imu2_frame,-0.00543212890625,-0.03082275390625,0.01007080078125,0.99945068359375,-0.01953125,0.005859375,-0.080078125,0.53515625,-0.078125,9.46484375
951,604000000,imu2_frame,-0.00543212890625,-0.03082275390625,0.01007080078125,0.99945068359375,0.0078125,-0.00390625,-0.150390625,0.53515625,-0.078125,9.46484375
951,624000000,imu2_frame,-0.00543212890625,-0.03082275390625,0.01007080078125,0.99945068359375,0.0234375,-0.0078125,-0.162109375,0.53515625,-0.078125,9.46484375
951,644000000,imu2_frame,-0.00543212890625,-0.03082275390625,0.01007080078125,0.99945068359375,0.005859375,0.0,-0.162109375,0.53515625,-0.078125,9.46484375
951,664000000,imu2_frame,-0.00543212890625,-0.03082275390625,0.01007080078125,0.99945068359375,-0.015625,-0.001953125,-0.08984375,0.53515625,-0.078125,9.46484375
951,684000000,imu2_frame,-0.00543212890625,-0.03082275390625,0.01007080078125,0.99945068359375,0.0,0.01953125,-0.0859375,0.53515625,-0.078125,9.46484375
951,704000000,imu2_frame,-0.00543212890625,-0.03082275390625,0.01007080078125,0.99945068359375,-0.01171875,0.025390625,-0.130859375,0.53515625,-0.078125,9.46484375
951,724000000,imu2_frame,-0.00543212890625,-0.03082275390625,0.01007080078125,0.99945068359375,0.005859375,-0.001953125,-0.15625,0.53515625,-0.078125,9.46484375
951,744000000,imu2_frame,-0.00543212890625,-0.03082275390625,0.01007080078125,0.99945068359375,0.01171875,0.01171875,-0.125,0.53515625,-0.078125,9.46484375
951,764000000,imu2_frame,-0.00543212890625,-0.03082275390625,0.01007080078125,0.99945068359375,-0.001953125,-0.01171875,-0.04296875,0.53515625,-0.078125,9.46484375
951,784000000,imu2_frame,-0.00543212890625,-0.03082275390625,0.01007080078125,0.99945068359375,0.00390625,0.005859375,-0.07421875,0.53515625,-0.078125,9.46484375
951,804000000,imu2_frame,-0.00543212890625,-0.03082275390625,0.01007080078125,0.99945068359375,-0.009765625,0.001953125,-0.11328125,0.53515625,-0.078125,9.46484375
951,824000000,imu2_frame,-0.00543212890625,-0.03082275390625,0.01007080078125,0.99945068359375,-0.009765625,0.0,-0.1328125,0.53515625,-0.078125,9.46484375
951,844000000,imu2_frame,-0.00543212890625,-0.03082275390625,0.01007080078125,0.99945068359375,0.01953125,-0.015625,-0.056640625,0.53515625,-0.078125,9.46484375
951,864000000,imu2_frame,-0.00543212890625,-0.03082275390625,0.01007080078125,0.99945068359375,0.015625,-0.013671875,-0.115234375,0.53515625,-0.078125,9.46484375
951,884000000,imu2_frame,-0.00543212890625,-0.03082275390625,0.01007080078125,0.99945068359375,0.009765625,0.00390625,-0.080078125,0.53515625,-0.078125,9.46484375
951,904000000,imu2_frame,-0.00543212890625,-0.03082275390625,0.01007080078125,0.99945068359375,-0.00390625,-0.0078125,-0.18359375,0.53515625,-0.078125,9.46484375
951,924000000,imu2_frame,-0.00543212890625,-0.03082275390625,0.01007080078125,0.99945068359375,0.015625,0.001953125,-0.0859375,0.53515625,-0.078125,9.46484375
951,944000000,imu2_frame,-0.00543212890625,-0.03082275390625,0.01007080078125,0.99945068359375,-0.015625,-0.001953125,-0.08203125,0.53515625,-0.078125,9.46484375
951,964000000,imu2_frame,-0.00543212890625,-0.03082275390625,0.01007080078125,0.99945068359375,0.015625,0.0078125,-0.09765625,0.53515625,-0.078125,9.46484375
951,984000000,imu2_frame,-0.00543212890625,-0.03082275390625,0.01007080078125,0.99945068359375,-0.009765625,0.009765625,-0.1171875,0.53515625,-0.078125,9.46484375
952,4000000,imu2_frame,-0.00543212890625,-0.03082275390625,0.01007080078125,0.99945068359375,0.013671875,-0.001953125,-0.12109375,0.53515625,-0.078125,9.46484375
952,24000000,imu2_frame,-0.00543212890625,-0.03082275390625,0.01007080078125,0.99945068359375,0.00390625,-0.013671875,-0.1328125,0.53515625,-0.078125,9.46484375
952,44000000,imu2_frame,-0.00543212890625,-0.03082275390625,0.01007080078125,0.99945068359375,-0.02734375,0.029296875,-0.125,0.53515625,-0.078125,9.46484375
952,64000000,imu2_frame,-0.00543212890625,-0.03082275390625,0.01007080078125,0.99945068359375,0.001953125,-0.01171875,-0.068359375,0.53515625,-0.078125,9.46484375
952,84000000,imu2_frame,-0.00543212890625,-0.03082275390625,0.01007080078125,0.99945068359375,0.00390625,-0.0078125,-0.154296875,0.53515625,-0.078125,9.46484375
952,104000000,imu2_frame,-0.00543212890625,-0.03082275390625,0.01007080078125,0.99945068359375,-0.013671875,0.021484375,-0.126953125,0.53515625,-0.078125,9.46484375
952,124000000,imu2_frame,-0.00543212890625,-0.03082275390625,0.01007080078125,0.99945068359375,0.02734375,-0.0078125,-0.115234375,0.53515625,-0.078125,9.46484375
952,144000000,imu2_frame,-0.00543212890625,-0.03082275390625,0.01007080078125,0.99945068359375,-0.03125,0.01171875,-0.171875,0.53515625,-0.078125,9.46484375
952,164000000,imu2_frame,-0.00543212890625,-0.03082275390625,0.01007080078125,0.99945068359375,-0.015625,0.0390625,-0.125,0.53515625,-0.078125,9.46484375
952,184000000,imu2_frame,-0.00543212890625,-0.03082275390625,0.01007080078125,0.99945068359375,-0.025390625,0.009765625,-0.146484375,0.53515625,-0.078125,9.46484375
952,204000000,imu2_frame,-0.00543212890625,-0.03082275390625,0.01007080078125,0.99945068359375,0.041015625,-0.00390625,-0.060546875,0.53515625,-0.078125,9.46484375
952,224000000,imu2_frame,-0.00543212890625,-0.03082275390625,0.01007080078125,0.99945068359375,-0.0078125,-0.001953125,-0.01171875,0.53515625,-0.078125,9.46484375
952,244000000,imu2_frame,-0.00543212890625,-0.03082275390625,0.01007080078125,0.99945068359375,0.01953125,0.01171875,-0.130859375,0.53515625,-0.078125,9.46484375
952,264000000,imu2_frame,-0.00543212890625,-0.03082275390625,0.01007080078125,0.99945068359375,0.009765625,-0.005859375,0.0390625,0.53515625,-0.078125,9.46484375
952,284000000,imu2_frame,-0.00543212890625,-0.03082275390625,0.01007080078125,0.99945068359375,0.05078125,-0.025390625,-0.033203125,0.53515625,-0.078125,9.46484375
952,304000000,imu2_frame,-0.00543212890625,-0.03082275390625,0.01007080078125,0.99945068359375,-0.01953125,0.01171875,-0.09375,0.53515625,-0.078125,9.46484375
952,324000000,imu2_frame,-0.00543212890625,-0.03082275390625,0.01007080078125,0.99945068359375,-0.001953125,-0.01953125,-0.037109375,0.53515625,-0.078125,9.46484375
952,344000000,imu2_frame,-0.00543212890625,-0.03082275390625,0.01007080078125,0.99945068359375,-0.0078125,-0.0078125,-0.033203125,0.53515625,-0.078125,9.46484375
952,364000000,imu2_frame,-0.00543212890625,-0.03082275390625,0.01007080078125,0.99945068359375,0.009765625,0.01171875,-0.046875,0.53515625,-0.078125,9.46484375
952,384000000,imu2_frame,-0.00543212890625,-0.03082275390625,0.01007080078125,0.99945068359375,0.0,0.021484375,-0.05859375,0.53515625,-0.078125,9.46484375
952,404000000,imu2_frame,-0.00543212890625,-0.03082275390625,0.01007080078125,0.99945068359375,-0.0078125,-0.005859375,0.029296875,0.53515625,-0.078125,9.46484375
952,424000000,imu2_frame,-0.00543212890625,-0.03082275390625,0.01007080078125,0.99945068359375,-0.013671875,0.017578125,0.00390625,0.53515625,-0.078125,9.46484375
952,444000000,imu2_frame,-0.00543212890625,-0.03082275390625,0.01007080078125,0.99945068359375,-0.013671875,0.017578125,0.00390625,0.57421875,-0.15234375,9.5
952,464000000,imu2_frame,-0.00543212890625,-0.03082275390625,0.01007080078125,0.99945068359375,-0.005859375,-0.00390625,0.076171875,0.57421875,-0.15234375,9.5
952,484000000,imu2_frame,-0.00543212890625,-0.03082275390625,0.01007080078125,0.99945068359375,0.017578125,-0.00390625,-0.021484375,0.57421875,-0.15234375,9.5
952,504000000,imu2_frame,-0.00543212890625,-0.03082275390625,0.01007080078125,0.99945068359375,0.03515625,0.0078125,-0.037109375,0.57421875,-0.15234375,9.5
952,524000000,imu2_frame,-0.00543212890625,-0.03082275390625,0.01007080078125,0.99945068359375,0.03515625,0.0078125,-0.037109375,0.53515625,0.0,9.421875
952,544000000,imu2_frame,-0.00543212890625,-0.03082275390625,0.01007080078125,0.99945068359375,-0.01171875,0.0,-0.060546875,0.53515625,0.0,9.421875
952,564000000,imu2_frame,-0.00543212890625,-0.03082275390625,0.01007080078125,0.99945068359375,0.0,0.0078125,-0.06640625,0.53515625,0.0,9.421875
952,584000000,imu2_frame,-0.00543212890625,-0.03082275390625,0.01007080078125,0.99945068359375,-0.0078125,0.00390625,-0.08984375,0.53515625,0.0,9.421875
